File: examples/data_example_1.txt
WORKSHOP 3 EXPORTED DATA: [C:\Documents and Settings\Administrator\Pulpit\POIG\1050_15.W01 - 1]
*************************************************************************************************
Source of data: ScriptPl
WS3 File Version: 1,05
Number of bytes in subfile: 167287
Total number of data points: 8339
Test date: 09-10-2011
Test time: 08:33:38
Player Step: 1
Step Capture No: 1
Actuator: 1
*************************************************************************************************
Actuator: 1  Channel:0	 Actuator: 1  Channel:1	 Actuator: 1  Channel:2	 Actuator: 1  Channel:3	 Actuator: 1  Channel:4
Load (kN)	 Stroke (mm)	 Extension (mm)	 Command (%)	 Time (s)
-0,024	 -58,313	 -0,015	 -44,799	 0,000
0,022	 -58,273	 -0,022	 -44,780	 1,750
0,022	 -58,249	 -0,024	 -44,757	 3,500
0,022	 -58,227	 -0,026	 -44,736	 5,250
0,022	 -58,197	 -0,025	 -44,714	 7,000
0,035	 -58,171	 -0,027	 -44,695	 8,750
0,039	 -58,139	 -0,028	 -44,672	 10,500
0,056	 -58,114	 -0,034	 -44,652	 12,250
0,059	 -58,088	 -0,038	 -44,630	 14,000
0,056	 -58,055	 -0,040	 -44,607	 15,750
0,074	 -58,031	 -0,043	 -44,588	 17,500
0,087	 -58,003	 -0,044	 -44,565	 19,250
0,093	 -57,974	 -0,044	 -44,543	 21,000
0,098	 -57,945	 -0,045	 -44,520	 22,750
0,112	 -57,915	 -0,046	 -44,498	 24,500
0,128	 -57,889	 -0,048	 -44,477	 26,250
0,150	 -57,866	 -0,048	 -44,462	 28,000
0,142	 -57,833	 -0,048	 -44,433	 29,750
0,157	 -57,805	 -0,049	 -44,410	 31,500
0,151	 -57,777	 -0,048	 -44,392	 33,250
0,194	 -57,755	 -0,048	 -44,370	 35,000
0,310	 -57,727	 -0,048	 -44,350	 36,750
0,477	 -57,697	 -0,047	 -44,328	 38,500
0,626	 -57,671	 -0,045	 -44,301	 40,250
0,812	 -57,636	 -0,036	 -44,291	 42,000
0,894	 -57,615	 -0,020	 -44,258	 43,750
0,946	 -57,589	 -0,002	 -44,240	 45,500
1,006	 -57,561	 0,019	 -44,223	 47,250
1,035	 -57,535	 0,039	 -44,198	 49,000
1,073	 -57,509	 0,061	 -44,178	 50,750
1,089	 -57,481	 0,081	 -44,154	 52,500
1,118	 -57,451	 0,102	 -44,132	 54,250
1,141	 -57,421	 0,124	 -44,114	 56,000
1,162	 -57,393	 0,146	 -44,091	 57,750
1,172	 -57,368	 0,167	 -44,063	 59,500
1,183	 -57,340	 0,187	 -44,047	 61,250
1,205	 -57,308	 0,208	 -44,026	 63,000
1,211	 -57,284	 0,230	 -44,008	 64,750
1,224	 -57,255	 0,252	 -43,984	 66,500
1,228	 -57,233	 0,272	 -43,965	 68,250
1,244	 -57,203	 0,293	 -43,945	 70,000
1,253	 -57,175	 0,314	 -43,917	 71,750
1,268	 -57,145	 0,336	 -43,899	 73,500
1,270	 -57,117	 0,357	 -43,877	 75,250
1,286	 -57,092	 0,380	 -43,855	 77,000
1,287	 -57,065	 0,403	 -43,831	 78,750
1,303	 -57,035	 0,426	 -43,815	 80,500
1,305	 -57,010	 0,450	 -43,788	 82,250
1,320	 -56,979	 0,473	 -43,767	 84,000
1,320	 -56,953	 0,496	 -43,747	 85,750
1,332	 -56,923	 0,520	 -43,728	 87,500
1,332	 -56,902	 0,543	 -43,705	 89,250
1,347	 -56,868	 0,565	 -43,685	 91,000
1,345	 -56,837	 0,585	 -43,664	 92,750
1,360	 -56,808	 0,606	 -43,641	 94,500
1,360	 -56,784	 0,627	 -43,618	 96,250
1,371	 -56,749	 0,649	 -43,595	 98,000
1,369	 -56,721	 0,673	 -43,573	 99,750
1,378	 -56,697	 0,696	 -43,552	 101,500
1,381	 -56,671	 0,721	 -43,534	 103,250
1,387	 -56,639	 0,745	 -43,513	 105,000
1,395	 -56,613	 0,770	 -43,489	 106,750
1,398	 -56,582	 0,793	 -43,469	 108,500
1,412	 -56,564	 0,816	 -43,447	 110,250
1,412	 -56,532	 0,840	 -43,419	 112,000
1,418	 -56,502	 0,865	 -43,403	 113,750
1,420	 -56,475	 0,888	 -43,381	 115,500
1,432	 -56,446	 0,913	 -43,356	 117,250
1,433	 -56,416	 0,932	 -43,338	 119,000
1,437	 -56,386	 0,952	 -43,316	 120,750
1,443	 -56,354	 0,974	 -43,296	 122,500
1,450	 -56,331	 0,998	 -43,274	 124,250
1,453	 -56,301	 1,019	 -43,250	 126,000
1,461	 -56,272	 1,033	 -43,232	 127,750
1,461	 -56,245	 1,054	 -43,212	 129,500
1,472	 -56,216	 1,077	 -43,186	 131,250
1,466	 -56,185	 1,109	 -43,168	 133,000
1,475	 -56,159	 1,148	 -43,145	 134,750
1,478	 -56,129	 1,161	 -43,118	 136,500
1,489	 -56,098	 2,041	 -43,103	 138,250
1,489	 -56,076	 2,071	 -43,085	 140,000
1,499	 -56,045	 2,092	 -43,060	 141,750
1,499	 -56,020	 2,115	 -43,036	 143,500
1,509	 -55,988	 2,135	 -43,014	 145,250
1,508	 -55,960	 2,156	 -42,992	 147,000
1,513	 -55,937	 2,177	 -42,970	 148,750
1,516	 -55,904	 1,687	 -42,950	 150,500
1,522	 -55,873	 1,093	 -42,931	 152,250
1,527	 -55,847	 1,093	 -42,910	 154,000
1,528	 -55,823	 1,093	 -42,890	 155,750
1,527	 -55,792	 1,093	 -42,866	 157,500
1,540	 -55,760	 1,093	 -42,842	 159,250
1,535	 -55,735	 1,094	 -42,823	 161,000
1,542	 -55,705	 1,093	 -42,801	 162,750
1,541	 -55,678	 1,094	 -42,781	 164,500
1,547	 -55,651	 1,096	 -42,760	 166,250
1,552	 -55,618	 1,096	 -42,738	 168,000
1,557	 -55,594	 1,098	 -42,717	 169,750
1,555	 -55,565	 1,098	 -42,694	 171,500
1,566	 -55,537	 1,099	 -42,671	 173,250
1,564	 -55,509	 1,098	 -42,657	 175,000
1,569	 -55,481	 1,098	 -42,633	 176,750
1,570	 -55,453	 1,098	 -42,608	 178,500
1,581	 -55,425	 1,098	 -42,588	 180,250
1,575	 -55,397	 1,098	 -42,559	 182,000
1,579	 -55,365	 1,098	 -42,539	 183,750
1,582	 -55,347	 1,098	 -42,522	 185,500
1,593	 -55,312	 1,098	 -42,498	 187,250
1,588	 -55,282	 1,098	 -42,483	 189,000
1,592	 -55,258	 1,098	 -42,459	 190,750
1,590	 -55,228	 1,101	 -42,433	 192,500
1,596	 -55,202	 1,101	 -42,415	 194,250
1,601	 -55,178	 1,101	 -42,393	 196,000
1,601	 -55,146	 1,102	 -42,371	 197,750
1,604	 -55,119	 1,102	 -42,351	 199,500
1,610	 -55,089	 1,102	 -42,323	 201,250
1,610	 -55,059	 1,102	 -42,299	 203,000
1,608	 -55,035	 1,102	 -42,285	 204,750
1,616	 -55,002	 1,102	 -42,264	 206,500
1,617	 -54,976	 1,102	 -42,240	 208,250
1,627	 -54,953	 1,102	 -42,222	 210,000
1,622	 -54,925	 1,102	 -42,200	 211,750
1,631	 -54,894	 1,102	 -42,179	 213,500
1,634	 -54,869	 1,102	 -42,156	 215,250
1,634	 -54,837	 1,102	 -42,132	 217,000
1,636	 -54,810	 1,101	 -42,118	 218,750
1,638	 -54,781	 1,102	 -42,090	 220,500
1,645	 -54,756	 1,102	 -42,069	 222,250
1,638	 -54,724	 1,102	 -42,045	 224,000
1,647	 -54,699	 1,102	 -42,026	 225,750
1,648	 -54,664	 1,102	 -42,004	 227,500
1,648	 -54,641	 1,102	 -41,986	 229,250
1,656	 -54,608	 1,102	 -41,965	 231,000
1,652	 -54,587	 1,102	 -41,946	 232,750
1,660	 -54,557	 1,102	 -41,922	 234,500
1,658	 -54,527	 1,102	 -41,899	 236,250
1,666	 -54,502	 1,102	 -41,877	 238,000
1,673	 -54,473	 1,101	 -41,856	 239,750
1,665	 -54,445	 1,102	 -41,834	 241,500
1,673	 -54,417	 1,102	 -41,814	 243,250
1,673	 -54,388	 1,101	 -41,788	 245,000
1,674	 -54,357	 1,102	 -41,771	 246,750
1,676	 -54,326	 1,102	 -41,744	 248,500
1,672	 -54,302	 1,102	 -41,726	 250,250
1,683	 -54,277	 1,101	 -41,710	 252,000
1,683	 -54,249	 1,102	 -41,683	 253,750
1,687	 -54,219	 1,102	 -41,663	 255,500
1,684	 -54,191	 1,102	 -41,642	 257,250
1,689	 -54,164	 1,102	 -41,619	 259,000
1,693	 -54,136	 1,102	 -41,596	 260,750
1,690	 -54,110	 1,102	 -41,571	 262,500
1,693	 -54,081	 1,101	 -41,548	 264,250
1,697	 -54,048	 1,101	 -41,528	 266,000
1,700	 -54,024	 1,102	 -41,510	 267,750
1,702	 -53,989	 1,102	 -41,488	 269,500
1,704	 -53,966	 1,102	 -41,466	 271,250
1,708	 -53,937	 1,102	 -41,444	 273,000
1,706	 -53,912	 1,102	 -41,422	 274,750
1,711	 -53,883	 1,101	 -41,404	 276,500
1,709	 -53,854	 1,102	 -41,381	 278,250
1,713	 -53,826	 1,101	 -41,364	 280,000
1,720	 -53,798	 1,102	 -41,339	 281,750
1,715	 -53,768	 1,102	 -41,316	 283,500
1,723	 -53,747	 1,102	 -41,295	 285,250
1,712	 -53,714	 1,102	 -41,271	 287,000
1,713	 -53,686	 1,101	 -41,251	 288,750
1,723	 -53,658	 1,101	 -41,234	 290,500
1,720	 -53,633	 1,102	 -41,210	 292,250
1,731	 -53,605	 1,102	 -41,188	 294,000
1,730	 -53,578	 1,102	 -41,172	 295,750
1,733	 -53,545	 1,102	 -41,146	 297,500
1,737	 -53,522	 1,102	 -41,122	 299,250
1,723	 -53,489	 1,101	 -41,105	 301,000
1,741	 -53,460	 1,102	 -41,080	 302,750
1,727	 -53,432	 1,102	 -41,061	 304,500
1,733	 -53,408	 1,102	 -41,034	 306,250
1,740	 -53,376	 1,102	 -41,014	 308,000
1,740	 -53,355	 1,102	 -40,996	 309,750
1,748	 -53,323	 1,102	 -40,971	 311,500
1,746	 -53,291	 1,102	 -40,956	 313,250
1,746	 -53,263	 1,102	 -40,931	 315,000
1,746	 -53,236	 1,102	 -40,908	 316,750
1,744	 -53,214	 1,102	 -40,889	 318,500
1,753	 -53,179	 1,102	 -40,865	 320,250
1,733	 -53,158	 1,102	 -40,842	 322,000
1,748	 -53,123	 1,102	 -40,823	 323,750
1,752	 -53,101	 1,102	 -40,804	 325,500
1,753	 -53,071	 1,101	 -40,780	 327,250
1,755	 -53,050	 1,102	 -40,757	 329,000
1,757	 -53,016	 1,102	 -40,738	 330,750
1,757	 -52,989	 1,102	 -40,717	 332,500
1,754	 -52,960	 1,102	 -40,692	 334,250
1,757	 -52,932	 1,102	 -40,671	 336,000
1,760	 -52,904	 1,101	 -40,653	 337,750
1,757	 -52,870	 1,102	 -40,628	 339,500
1,754	 -52,848	 1,102	 -40,603	 341,250
1,752	 -52,813	 1,102	 -40,587	 343,000
1,752	 -52,785	 1,102	 -40,559	 344,750
1,751	 -52,764	 1,102	 -40,541	 346,500
1,742	 -52,735	 1,101	 -40,522	 348,250
1,752	 -52,707	 1,102	 -40,500	 350,000
1,751	 -52,679	 1,102	 -40,477	 351,750
1,745	 -52,648	 1,102	 -40,455	 353,500
1,731	 -52,622	 1,102	 -40,430	 355,250
1,733	 -52,600	 1,102	 -40,415	 357,000
1,731	 -52,571	 1,102	 -40,390	 358,750
1,728	 -52,538	 1,101	 -40,368	 360,500
1,719	 -52,507	 1,101	 -40,345	 362,250
1,715	 -52,482	 1,102	 -40,330	 364,000
1,710	 -52,449	 1,102	 -40,305	 365,750
1,706	 -52,425	 1,102	 -40,285	 367,500
1,693	 -52,398	 1,102	 -40,261	 369,250
1,685	 -52,368	 1,101	 -40,243	 371,000
1,684	 -52,341	 1,102	 -40,219	 372,750
1,673	 -52,311	 1,102	 -40,195	 374,500
1,661	 -52,290	 1,102	 -40,178	 376,250
1,659	 -52,255	 1,102	 -40,158	 378,000
1,648	 -52,228	 1,102	 -40,136	 379,750
1,634	 -52,200	 1,102	 -40,110	 381,500
1,624	 -52,173	 1,102	 -40,087	 383,250
1,617	 -52,146	 1,102	 -40,068	 385,000
1,610	 -52,116	 1,102	 -40,049	 386,750
1,599	 -52,094	 1,102	 -40,027	 388,500
1,594	 -52,065	 1,102	 -40,009	 390,250
1,589	 -52,028	 1,101	 -39,978	 392,000
1,582	 -52,004	 1,102	 -39,961	 393,750
1,576	 -51,979	 1,101	 -39,939	 395,500
1,562	 -51,952	 1,102	 -39,914	 397,250
1,562	 -51,919	 1,102	 -39,892	 399,000
1,554	 -51,890	 1,102	 -39,878	 400,750
1,552	 -51,867	 1,102	 -39,856	 402,500
1,549	 -51,834	 1,102	 -39,835	 404,250
1,540	 -51,808	 1,102	 -39,812	 406,000
1,542	 -51,783	 1,102	 -39,790	 407,750
1,540	 -51,755	 1,102	 -39,769	 409,500
1,536	 -51,728	 1,102	 -39,746	 411,250
1,540	 -51,698	 1,102	 -39,724	 413,000
1,534	 -51,672	 1,102	 -39,708	 414,750
1,540	 -51,643	 1,102	 -39,681	 416,500
1,534	 -51,616	 1,102	 -39,665	 418,250
1,534	 -51,591	 1,102	 -39,638	 420,000
1,542	 -51,559	 1,102	 -39,612	 421,750
1,540	 -51,531	 1,102	 -39,590	 423,500
1,541	 -51,500	 1,102	 -39,572	 425,250
1,542	 -51,472	 1,102	 -39,549	 427,000
1,542	 -51,446	 1,102	 -39,527	 428,750
1,551	 -51,418	 1,102	 -39,506	 430,500
1,544	 -51,388	 1,102	 -39,486	 432,250
1,554	 -51,359	 1,102	 -39,461	 434,000
1,554	 -51,328	 1,102	 -39,439	 435,750
1,554	 -51,303	 1,102	 -39,426	 437,500
1,562	 -51,279	 1,102	 -39,401	 439,250
1,562	 -51,247	 1,102	 -39,380	 441,000
1,563	 -51,219	 1,102	 -39,360	 442,750
1,570	 -51,192	 1,102	 -39,333	 444,500
1,560	 -51,164	 1,102	 -39,311	 446,250
1,572	 -51,138	 1,102	 -39,293	 448,000
1,568	 -51,109	 1,102	 -39,270	 449,750
1,574	 -51,081	 1,102	 -39,252	 451,500
1,574	 -51,056	 1,102	 -39,230	 453,250
1,572	 -51,026	 1,102	 -39,203	 455,000
1,577	 -50,998	 1,102	 -39,187	 456,750
1,578	 -50,974	 1,103	 -39,164	 458,500
1,584	 -50,946	 1,102	 -39,141	 460,250
1,593	 -50,914	 1,102	 -39,121	 462,000
1,588	 -50,886	 1,103	 -39,100	 463,750
1,588	 -50,857	 1,102	 -39,078	 465,500
1,590	 -50,833	 1,102	 -39,058	 467,250
1,593	 -50,808	 1,103	 -39,033	 469,000
1,597	 -50,776	 1,102	 -39,014	 470,750
1,591	 -50,747	 1,102	 -38,993	 472,500
1,608	 -50,719	 1,102	 -38,973	 474,250
1,604	 -50,687	 1,102	 -38,951	 476,000
1,595	 -50,661	 1,102	 -38,928	 477,750
1,599	 -50,638	 1,102	 -38,906	 479,500
1,596	 -50,608	 1,102	 -38,889	 481,250
1,609	 -50,578	 1,102	 -38,865	 483,000
1,606	 -50,547	 1,102	 -38,843	 484,750
1,606	 -50,527	 1,102	 -38,821	 486,500
1,606	 -50,497	 1,102	 -38,797	 488,250
1,609	 -50,469	 1,102	 -38,779	 490,000
1,618	 -50,441	 1,102	 -38,760	 491,750
1,612	 -50,413	 1,102	 -38,735	 493,500
1,618	 -50,384	 1,103	 -38,716	 495,250
1,608	 -50,354	 1,102	 -38,694	 497,000
1,613	 -50,328	 1,102	 -38,668	 498,750
1,617	 -50,301	 1,102	 -38,646	 500,500
1,614	 -50,273	 1,102	 -38,624	 502,250
1,621	 -50,243	 1,103	 -38,604	 504,000
1,621	 -50,215	 1,102	 -38,580	 505,750
1,619	 -50,187	 1,102	 -38,556	 507,500
1,618	 -50,160	 1,102	 -38,541	 509,250
1,619	 -50,129	 1,102	 -38,517	 511,000
1,625	 -50,104	 1,102	 -38,499	 512,750
1,615	 -50,075	 1,102	 -38,478	 514,500
1,621	 -50,046	 1,102	 -38,453	 516,250
1,619	 -50,018	 1,103	 -38,433	 518,000
1,621	 -49,988	 1,103	 -38,410	 519,750
1,623	 -49,962	 1,103	 -38,388	 521,500
1,617	 -49,932	 1,103	 -38,368	 523,250
1,618	 -49,909	 1,102	 -38,346	 525,000
1,621	 -49,878	 1,102	 -38,324	 526,750
1,621	 -49,851	 1,103	 -38,307	 528,500
1,614	 -49,821	 1,103	 -38,282	 530,250
1,611	 -49,793	 1,103	 -38,258	 532,000
1,614	 -49,765	 1,103	 -38,239	 533,750
1,610	 -49,741	 1,103	 -38,219	 535,500
1,614	 -49,710	 1,103	 -38,198	 537,250
1,612	 -49,680	 1,103	 -38,174	 539,000
1,617	 -49,652	 1,103	 -38,151	 540,750
1,610	 -49,623	 1,103	 -38,131	 542,500
1,599	 -49,596	 1,103	 -38,110	 544,250
1,608	 -49,570	 1,103	 -38,083	 546,000
1,599	 -49,545	 1,103	 -38,068	 547,750
1,600	 -49,517	 1,103	 -38,045	 549,500
1,596	 -49,483	 1,103	 -38,024	 551,250
1,598	 -49,457	 1,103	 -38,002	 553,000
1,600	 -49,432	 1,103	 -37,979	 554,750
1,582	 -49,403	 1,103	 -37,960	 556,500
1,586	 -49,376	 1,103	 -37,940	 558,250
1,582	 -49,346	 1,103	 -37,916	 560,000
1,576	 -49,315	 1,103	 -37,896	 561,750
1,581	 -49,290	 1,103	 -37,874	 563,500
1,568	 -49,259	 1,103	 -37,848	 565,250
1,568	 -49,235	 1,103	 -37,835	 567,000
1,559	 -49,209	 1,103	 -37,809	 568,750
1,562	 -49,179	 1,103	 -37,791	 570,500
1,559	 -49,146	 1,103	 -37,765	 572,250
1,552	 -49,121	 1,103	 -37,745	 574,000
1,547	 -49,092	 1,103	 -37,725	 575,750
1,537	 -49,063	 1,103	 -37,703	 577,500
1,542	 -49,039	 1,103	 -37,676	 579,250
1,533	 -49,006	 1,103	 -37,654	 581,000
1,532	 -48,982	 1,103	 -37,633	 582,750
1,521	 -48,949	 1,103	 -37,610	 584,500
1,522	 -48,926	 1,103	 -37,594	 586,250
1,518	 -48,896	 1,104	 -37,572	 588,000
1,514	 -48,868	 1,103	 -37,549	 589,750
1,508	 -48,839	 1,103	 -37,528	 591,500
1,495	 -48,809	 1,103	 -37,504	 593,250
1,497	 -48,787	 1,103	 -37,485	 595,000
1,491	 -48,755	 1,103	 -37,463	 596,750
1,493	 -48,726	 1,103	 -37,441	 598,500
1,481	 -48,700	 1,103	 -37,423	 600,250
1,477	 -48,667	 1,103	 -37,403	 602,000
1,472	 -48,640	 1,104	 -37,374	 603,750
1,472	 -48,612	 1,103	 -37,360	 605,500
1,470	 -48,581	 1,103	 -37,334	 607,250
1,459	 -48,558	 1,103	 -37,316	 609,000
1,460	 -48,526	 1,103	 -37,294	 610,750
1,451	 -48,498	 1,103	 -37,270	 612,500
1,451	 -48,475	 1,103	 -37,247	 614,250
1,447	 -48,443	 1,103	 -37,226	 616,000
1,441	 -48,419	 1,103	 -37,204	 617,750
1,439	 -48,393	 1,104	 -37,186	 619,500
1,436	 -48,363	 1,103	 -37,163	 621,250
1,426	 -48,335	 1,104	 -37,143	 623,000
1,426	 -48,310	 1,103	 -37,120	 624,750
1,433	 -48,284	 1,104	 -37,097	 626,500
1,424	 -48,255	 1,103	 -37,081	 628,250
1,426	 -48,231	 1,104	 -37,055	 630,000
1,425	 -48,203	 1,104	 -37,030	 631,750
1,422	 -48,172	 1,104	 -37,020	 633,500
1,418	 -48,143	 1,104	 -36,989	 635,250
1,419	 -48,122	 1,103	 -36,966	 637,000
1,420	 -48,092	 1,103	 -36,950	 638,750
1,425	 -48,061	 1,104	 -36,929	 640,500
1,422	 -48,033	 1,104	 -36,908	 642,250
1,417	 -48,006	 1,104	 -36,884	 644,000
1,422	 -47,979	 1,104	 -36,864	 645,750
1,419	 -47,955	 1,103	 -36,846	 647,500
1,424	 -47,922	 1,104	 -36,819	 649,250
1,419	 -47,898	 1,104	 -36,802	 651,000
1,418	 -47,865	 1,104	 -36,778	 652,750
1,415	 -47,838	 1,104	 -36,756	 654,500
1,419	 -47,809	 1,103	 -36,736	 656,250
1,417	 -47,782	 1,104	 -36,710	 658,000
1,417	 -47,758	 1,103	 -36,687	 659,750
1,424	 -47,724	 1,104	 -36,670	 661,500
1,419	 -47,696	 1,104	 -36,644	 663,250
1,420	 -47,670	 1,104	 -36,619	 665,000
1,422	 -47,645	 1,104	 -36,604	 666,750
1,423	 -47,614	 1,104	 -36,582	 668,500
1,421	 -47,584	 1,104	 -36,558	 670,250
1,418	 -47,557	 1,104	 -36,540	 672,000
1,423	 -47,528	 1,104	 -36,517	 673,750
1,418	 -47,504	 1,104	 -36,500	 675,500
1,425	 -47,476	 1,104	 -36,474	 677,250
1,424	 -47,445	 1,104	 -36,453	 679,000
1,427	 -47,415	 1,104	 -36,430	 680,750
1,424	 -47,386	 1,104	 -36,412	 682,500
1,425	 -47,363	 1,104	 -36,389	 684,250
1,423	 -47,337	 1,104	 -36,367	 686,000
1,416	 -47,308	 1,104	 -36,347	 687,750
1,418	 -47,278	 1,105	 -36,321	 689,500
1,424	 -47,252	 1,104	 -36,306	 691,250
1,430	 -47,221	 1,104	 -36,284	 693,000
1,423	 -47,194	 1,104	 -36,262	 694,750
1,425	 -47,166	 1,104	 -36,240	 696,500
1,425	 -47,133	 1,104	 -36,215	 698,250
1,426	 -47,108	 1,104	 -36,196	 700,000
1,419	 -47,079	 1,104	 -36,173	 701,750
1,423	 -47,054	 1,105	 -36,149	 703,500
1,423	 -47,028	 1,104	 -36,130	 705,250
1,418	 -46,995	 1,104	 -36,113	 707,000
1,427	 -46,971	 1,104	 -36,092	 708,750
1,418	 -46,941	 1,104	 -36,067	 710,500
1,427	 -46,913	 1,104	 -36,047	 712,250
1,417	 -46,886	 1,105	 -36,025	 714,000
1,426	 -46,854	 1,105	 -36,000	 715,750
1,418	 -46,833	 1,105	 -35,980	 717,500
1,419	 -46,802	 1,105	 -35,961	 719,250
1,413	 -46,771	 1,105	 -35,935	 721,000
1,419	 -46,744	 1,105	 -35,914	 722,750
1,418	 -46,718	 1,104	 -35,895	 724,500
1,420	 -46,689	 1,105	 -35,874	 726,250
1,417	 -46,663	 1,105	 -35,852	 728,000
1,411	 -46,632	 1,104	 -35,832	 729,750
1,415	 -46,609	 1,104	 -35,810	 731,500
1,407	 -46,577	 1,105	 -35,789	 733,250
1,413	 -46,549	 1,105	 -35,767	 735,000
1,402	 -46,521	 1,104	 -35,745	 736,750
1,407	 -46,493	 1,105	 -35,721	 738,500
1,411	 -46,465	 1,105	 -35,699	 740,250
1,405	 -46,437	 1,104	 -35,679	 742,000
1,402	 -46,408	 1,105	 -35,655	 743,750
1,404	 -46,380	 1,105	 -35,635	 745,500
1,400	 -46,351	 1,105	 -35,616	 747,250
1,404	 -46,324	 1,105	 -35,593	 749,000
1,395	 -46,296	 1,105	 -35,571	 750,750
1,391	 -46,267	 1,105	 -35,554	 752,500
1,395	 -46,239	 1,105	 -35,528	 754,250
1,389	 -46,214	 1,105	 -35,504	 756,000
1,394	 -46,184	 1,105	 -35,489	 757,750
1,386	 -46,157	 1,105	 -35,465	 759,500
1,392	 -46,128	 1,105	 -35,445	 761,250
1,381	 -46,099	 1,105	 -35,423	 763,000
1,387	 -46,070	 1,105	 -35,396	 764,750
1,378	 -46,049	 1,105	 -35,377	 766,500
1,378	 -46,021	 1,104	 -35,357	 768,250
1,373	 -45,989	 1,105	 -35,334	 770,000
1,374	 -45,963	 1,105	 -35,314	 771,750
1,369	 -45,934	 1,105	 -35,291	 773,500
1,376	 -45,902	 1,105	 -35,265	 775,250
1,369	 -45,875	 1,105	 -35,247	 777,000
1,369	 -45,851	 1,105	 -35,223	 778,750
1,365	 -45,818	 1,105	 -35,206	 780,500
1,363	 -45,787	 1,105	 -35,185	 782,250
1,360	 -45,764	 1,105	 -35,163	 784,000
1,357	 -45,733	 1,105	 -35,141	 785,750
1,358	 -45,708	 1,105	 -35,122	 787,500
1,352	 -45,682	 1,105	 -35,101	 789,250
1,362	 -45,649	 1,105	 -35,081	 791,000
1,356	 -45,621	 1,105	 -35,057	 792,750
1,353	 -45,597	 1,105	 -35,038	 794,500
1,351	 -45,566	 1,105	 -35,015	 796,250
1,356	 -45,539	 1,105	 -34,990	 798,000
1,342	 -45,512	 1,105	 -34,970	 799,750
1,346	 -45,481	 1,105	 -34,945	 801,500
1,343	 -45,457	 1,105	 -34,927	 803,250
1,336	 -45,429	 1,105	 -34,906	 805,000
1,342	 -45,401	 1,105	 -34,884	 806,750
1,335	 -45,370	 1,105	 -34,858	 808,500
1,343	 -45,345	 1,105	 -34,842	 810,250
1,337	 -45,314	 1,105	 -34,819	 812,000
1,338	 -45,287	 1,105	 -34,800	 813,750
1,333	 -45,253	 1,105	 -34,781	 815,500
1,334	 -45,232	 1,105	 -34,754	 817,250
1,332	 -45,204	 1,105	 -34,736	 819,000
1,330	 -45,175	 1,105	 -34,710	 820,750
1,325	 -45,145	 1,105	 -34,686	 822,500
1,334	 -45,118	 1,105	 -34,662	 824,250
1,329	 -45,092	 1,105	 -34,646	 826,000
1,327	 -45,063	 1,105	 -34,621	 827,750
1,319	 -45,028	 1,105	 -34,603	 829,500
1,317	 -45,006	 1,105	 -34,581	 831,250
1,325	 -44,979	 1,105	 -34,562	 833,000
1,323	 -44,950	 1,105	 -34,540	 834,750
1,319	 -44,921	 1,105	 -34,517	 836,500
1,315	 -44,893	 1,105	 -34,496	 838,250
1,318	 -44,866	 1,105	 -34,478	 840,000
1,312	 -44,837	 1,105	 -34,452	 841,750
1,315	 -44,809	 1,105	 -34,434	 843,500
1,307	 -44,785	 1,106	 -34,406	 845,250
1,313	 -44,755	 1,105	 -34,394	 847,000
1,310	 -44,728	 1,105	 -34,368	 848,750
1,307	 -44,696	 1,105	 -34,342	 850,500
1,301	 -44,672	 1,105	 -34,325	 852,250
1,301	 -44,645	 1,105	 -34,304	 854,000
1,302	 -44,615	 1,105	 -34,280	 855,750
1,300	 -44,583	 1,105	 -34,257	 857,500
1,301	 -44,559	 1,105	 -34,240	 859,250
1,301	 -44,532	 1,105	 -34,215	 861,000
1,299	 -44,503	 1,106	 -34,196	 862,750
1,296	 -44,474	 1,105	 -34,174	 864,500
1,297	 -44,447	 1,105	 -34,152	 866,250
1,290	 -44,421	 1,105	 -34,134	 868,000
1,295	 -44,389	 1,106	 -34,108	 869,750
1,290	 -44,365	 1,106	 -34,091	 871,500
1,289	 -44,335	 1,105	 -34,068	 873,250
1,286	 -44,307	 1,105	 -34,044	 875,000
1,289	 -44,278	 1,105	 -34,024	 876,750
1,283	 -44,250	 1,106	 -34,003	 878,500
1,285	 -44,225	 1,105	 -33,979	 880,250
1,279	 -44,194	 1,105	 -33,957	 882,000
1,284	 -44,168	 1,106	 -33,939	 883,750
1,280	 -44,138	 1,105	 -33,917	 885,500
1,281	 -44,112	 1,106	 -33,893	 887,250
1,277	 -44,083	 1,105	 -33,873	 889,000
1,277	 -44,051	 1,106	 -33,852	 890,750
1,277	 -44,026	 1,106	 -33,831	 892,500
1,268	 -43,998	 1,106	 -33,808	 894,250
1,277	 -43,970	 1,105	 -33,788	 896,000
1,270	 -43,945	 1,106	 -33,765	 897,750
1,269	 -43,915	 1,106	 -33,743	 899,500
1,268	 -43,889	 1,106	 -33,719	 901,250
1,269	 -43,859	 1,106	 -33,698	 903,000
1,270	 -43,832	 1,106	 -33,680	 904,750
1,270	 -43,805	 1,106	 -33,654	 906,500
1,264	 -43,774	 1,105	 -33,633	 908,250
1,268	 -43,748	 1,106	 -33,613	 910,000
1,261	 -43,718	 1,106	 -33,592	 911,750
1,263	 -43,692	 1,106	 -33,567	 913,500
1,257	 -43,659	 1,106	 -33,552	 915,250
1,262	 -43,634	 1,106	 -33,528	 917,000
1,255	 -43,605	 1,106	 -33,505	 918,750
1,260	 -43,577	 1,105	 -33,480	 920,500
1,251	 -43,550	 1,106	 -33,463	 922,250
1,257	 -43,526	 1,106	 -33,442	 924,000
1,251	 -43,493	 1,106	 -33,418	 925,750
1,251	 -43,464	 1,106	 -33,396	 927,500
1,242	 -43,439	 1,106	 -33,378	 929,250
1,251	 -43,413	 1,106	 -33,356	 931,000
1,246	 -43,383	 1,106	 -33,339	 932,750
1,251	 -43,356	 1,106	 -33,315	 934,500
1,242	 -43,324	 1,106	 -33,291	 936,250
1,242	 -43,300	 1,106	 -33,273	 938,000
1,242	 -43,276	 1,106	 -33,246	 939,750
1,242	 -43,244	 1,106	 -33,222	 941,500
1,239	 -43,214	 1,106	 -33,209	 943,250
1,242	 -43,189	 1,106	 -33,188	 945,000
1,231	 -43,158	 1,106	 -33,161	 946,750
1,241	 -43,129	 1,106	 -33,144	 948,500
1,230	 -43,101	 1,106	 -33,118	 950,250
1,231	 -43,071	 1,106	 -33,105	 952,000
1,233	 -43,048	 1,105	 -33,079	 953,750
1,231	 -43,020	 1,106	 -33,055	 955,500
1,229	 -42,992	 1,106	 -33,039	 957,250
1,233	 -42,963	 1,106	 -33,012	 959,000
1,226	 -42,930	 1,106	 -32,991	 960,750
1,230	 -42,906	 1,106	 -32,968	 962,500
1,222	 -42,880	 1,106	 -32,949	 964,250
1,226	 -42,852	 1,105	 -32,927	 966,000
1,222	 -42,823	 1,106	 -32,907	 967,750
1,219	 -42,795	 1,106	 -32,886	 969,500
1,216	 -42,766	 1,106	 -32,862	 971,250
1,219	 -42,741	 1,106	 -32,842	 973,000
1,215	 -42,710	 1,106	 -32,818	 974,750
1,220	 -42,685	 1,106	 -32,797	 976,500
1,213	 -42,655	 1,106	 -32,774	 978,250
1,216	 -42,624	 1,106	 -32,752	 980,000
1,207	 -42,602	 1,106	 -32,730	 981,750
1,216	 -42,570	 1,106	 -32,711	 983,500
1,205	 -42,542	 1,106	 -32,688	 985,250
1,213	 -42,514	 1,106	 -32,668	 987,000
1,203	 -42,484	 1,106	 -32,643	 988,750
1,210	 -42,460	 1,106	 -32,624	 990,500
1,199	 -42,435	 1,106	 -32,606	 992,250
1,200	 -42,408	 1,107	 -32,576	 994,000
1,204	 -42,374	 1,106	 -32,561	 995,750
1,198	 -42,349	 1,106	 -32,537	 997,500
1,204	 -42,315	 1,106	 -32,515	 999,250
1,198	 -42,294	 1,106	 -32,496	 1001,000
1,203	 -42,266	 1,106	 -32,474	 1002,750
1,198	 -42,237	 1,106	 -32,453	 1004,500
1,198	 -42,209	 1,106	 -32,436	 1006,250
1,192	 -42,177	 1,106	 -32,407	 1008,000
1,196	 -42,152	 1,106	 -32,393	 1009,750
1,189	 -42,123	 1,107	 -32,366	 1011,500
1,193	 -42,097	 1,106	 -32,343	 1013,250
1,186	 -42,068	 1,106	 -32,322	 1015,000
1,191	 -42,040	 1,106	 -32,300	 1016,750
1,185	 -42,016	 1,106	 -32,276	 1018,500
1,188	 -41,983	 1,106	 -32,260	 1020,250
1,181	 -41,958	 1,106	 -32,235	 1022,000
1,185	 -41,926	 1,106	 -32,219	 1023,750
1,185	 -41,899	 1,106	 -32,200	 1025,500
1,181	 -41,870	 1,107	 -32,172	 1027,250
1,178	 -41,839	 1,106	 -32,153	 1029,000
1,181	 -41,812	 1,106	 -32,128	 1030,750
1,179	 -41,789	 1,106	 -32,109	 1032,500
1,175	 -41,758	 1,106	 -32,087	 1034,250
1,173	 -41,730	 1,106	 -32,070	 1036,000
1,170	 -41,701	 1,106	 -32,045	 1037,750
1,172	 -41,677	 1,106	 -32,025	 1039,500
1,169	 -41,648	 1,105	 -32,002	 1041,250
1,170	 -41,620	 1,106	 -31,985	 1043,000
1,169	 -41,589	 1,106	 -31,958	 1044,750
1,167	 -41,563	 1,106	 -31,938	 1046,500
1,165	 -41,532	 1,106	 -31,919	 1048,250
1,163	 -41,511	 1,106	 -31,893	 1050,000
1,161	 -41,471	 1,107	 -31,869	 1051,750
1,162	 -41,446	 1,107	 -31,851	 1053,500
1,156	 -41,420	 1,106	 -31,829	 1055,250
1,161	 -41,389	 1,106	 -31,805	 1057,000
1,154	 -41,364	 1,106	 -31,787	 1058,750
1,158	 -41,337	 1,107	 -31,760	 1060,500
1,153	 -41,312	 1,106	 -31,739	 1062,250
1,152	 -41,283	 1,106	 -31,722	 1064,000
1,148	 -41,249	 1,106	 -31,698	 1065,750
1,154	 -41,223	 1,106	 -31,678	 1067,500
1,145	 -41,198	 1,106	 -31,655	 1069,250
1,148	 -41,171	 1,106	 -31,634	 1071,000
1,146	 -41,141	 1,107	 -31,612	 1072,750
1,142	 -41,114	 1,106	 -31,592	 1074,500
1,142	 -41,086	 1,106	 -31,572	 1076,250
1,141	 -41,055	 1,106	 -31,549	 1078,000
1,142	 -41,029	 1,107	 -31,524	 1079,750
1,137	 -41,001	 1,107	 -31,506	 1081,500
1,139	 -40,972	 1,106	 -31,483	 1083,250
1,132	 -40,940	 1,107	 -31,461	 1085,000
1,135	 -40,914	 1,106	 -31,442	 1086,750
1,131	 -40,886	 1,106	 -31,420	 1088,500
1,132	 -40,859	 1,106	 -31,400	 1090,250
1,126	 -40,829	 1,107	 -31,379	 1092,000
1,131	 -40,805	 1,107	 -31,354	 1093,750
1,126	 -40,774	 1,106	 -31,336	 1095,500
1,124	 -40,748	 1,107	 -31,310	 1097,250
1,120	 -40,720	 1,106	 -31,289	 1099,000
1,120	 -40,691	 1,107	 -31,268	 1100,750
1,117	 -40,663	 1,107	 -31,254	 1102,500
1,121	 -40,635	 1,107	 -31,222	 1104,250
1,115	 -40,606	 1,107	 -31,207	 1106,000
1,119	 -40,581	 1,106	 -31,184	 1107,750
1,113	 -40,552	 1,107	 -31,161	 1109,500
1,113	 -40,524	 1,106	 -31,140	 1111,250
1,110	 -40,495	 1,107	 -31,121	 1113,000
1,112	 -40,468	 1,107	 -31,097	 1114,750
1,108	 -40,443	 1,106	 -31,077	 1116,500
1,112	 -40,410	 1,107	 -31,052	 1118,250
1,104	 -40,388	 1,107	 -31,034	 1120,000
1,106	 -40,358	 1,106	 -31,014	 1121,750
1,100	 -40,328	 1,106	 -30,992	 1123,500
1,104	 -40,303	 1,107	 -30,971	 1125,250
1,097	 -40,272	 1,106	 -30,948	 1127,000
1,100	 -40,244	 1,107	 -30,925	 1128,750
1,096	 -40,215	 1,107	 -30,907	 1130,500
1,097	 -40,188	 1,106	 -30,882	 1132,250
1,093	 -40,159	 1,107	 -30,863	 1134,000
1,089	 -40,131	 1,107	 -30,838	 1135,750
1,092	 -40,107	 1,107	 -30,814	 1137,500
1,087	 -40,078	 1,106	 -30,797	 1139,250
1,093	 -40,049	 1,107	 -30,774	 1141,000
1,084	 -40,017	 1,107	 -30,751	 1142,750
1,089	 -39,994	 1,107	 -30,731	 1144,500
1,084	 -39,965	 1,106	 -30,707	 1146,250
1,084	 -39,936	 1,106	 -30,689	 1148,000
1,078	 -39,907	 1,106	 -30,668	 1149,750
1,082	 -39,884	 1,107	 -30,642	 1151,500
1,078	 -39,857	 1,106	 -30,623	 1153,250
1,082	 -39,826	 1,107	 -30,600	 1155,000
1,079	 -39,799	 1,107	 -30,576	 1156,750
1,079	 -39,770	 1,107	 -30,561	 1158,500
1,069	 -39,741	 1,107	 -30,536	 1160,250
1,075	 -39,713	 1,107	 -30,518	 1162,000
1,069	 -39,684	 1,107	 -30,496	 1163,750
1,073	 -39,653	 1,107	 -30,474	 1165,500
1,064	 -39,627	 1,107	 -30,453	 1167,250
1,071	 -39,602	 1,107	 -30,431	 1169,000
1,064	 -39,569	 1,106	 -30,406	 1170,750
1,068	 -39,543	 1,107	 -30,385	 1172,500
1,061	 -39,514	 1,106	 -30,366	 1174,250
1,066	 -39,489	 1,106	 -30,345	 1176,000
1,059	 -39,458	 1,106	 -30,323	 1177,750
1,062	 -39,432	 1,106	 -30,300	 1179,500
1,058	 -39,400	 1,107	 -30,282	 1181,250
1,056	 -39,379	 1,106	 -30,259	 1183,000
1,057	 -39,351	 1,106	 -30,236	 1184,750
1,054	 -39,314	 1,107	 -30,215	 1186,500
1,053	 -39,295	 1,106	 -30,194	 1188,250
1,051	 -39,262	 1,107	 -30,174	 1190,000
1,054	 -39,237	 1,106	 -30,149	 1191,750
1,048	 -39,208	 1,107	 -30,128	 1193,500
1,051	 -39,179	 1,106	 -30,111	 1195,250
1,040	 -39,151	 1,106	 -30,089	 1197,000
1,048	 -39,122	 1,106	 -30,061	 1198,750
1,039	 -39,093	 1,107	 -30,043	 1200,500
1,048	 -39,069	 1,107	 -30,024	 1202,250
1,040	 -39,040	 1,107	 -30,000	 1204,000
1,046	 -39,018	 1,107	 -29,980	 1205,750
1,040	 -38,984	 1,107	 -29,960	 1207,500
1,043	 -38,955	 1,107	 -29,936	 1209,250
1,035	 -38,927	 1,107	 -29,915	 1211,000
1,035	 -38,904	 1,107	 -29,896	 1212,750
1,032	 -38,875	 1,107	 -29,872	 1214,500
1,035	 -38,844	 1,106	 -29,847	 1216,250
1,028	 -38,816	 1,107	 -29,824	 1218,000
1,029	 -38,787	 1,107	 -29,804	 1219,750
1,026	 -38,758	 1,107	 -29,781	 1221,500
1,021	 -38,731	 1,106	 -29,761	 1223,250
1,023	 -38,702	 1,107	 -29,742	 1225,000
1,022	 -38,673	 1,107	 -29,719	 1226,750
1,023	 -38,647	 1,107	 -29,699	 1228,500
1,018	 -38,621	 1,107	 -29,675	 1230,250
1,017	 -38,587	 1,107	 -29,655	 1232,000
1,014	 -38,561	 1,107	 -29,634	 1233,750
1,015	 -38,535	 1,107	 -29,612	 1235,500
1,013	 -38,512	 1,107	 -29,590	 1237,250
1,016	 -38,477	 1,107	 -29,571	 1239,000
1,010	 -38,449	 1,107	 -29,544	 1240,750
1,012	 -38,425	 1,107	 -29,523	 1242,500
1,004	 -38,394	 1,107	 -29,506	 1244,250
1,013	 -38,367	 1,107	 -29,486	 1246,000
1,001	 -38,340	 1,107	 -29,464	 1247,750
1,002	 -38,316	 1,107	 -29,439	 1249,500
1,000	 -38,282	 1,107	 -29,420	 1251,250
1,004	 -38,260	 1,107	 -29,403	 1253,000
0,995	 -38,231	 1,107	 -29,376	 1254,750
1,003	 -38,201	 1,107	 -29,353	 1256,500
0,992	 -38,174	 1,107	 -29,334	 1258,250
0,994	 -38,146	 1,107	 -29,315	 1260,000
0,991	 -38,117	 1,107	 -29,294	 1261,750
0,994	 -38,090	 1,107	 -29,265	 1263,500
0,991	 -38,059	 1,107	 -29,247	 1265,250
0,992	 -38,029	 1,107	 -29,226	 1267,000
0,984	 -37,999	 1,108	 -29,203	 1268,750
0,986	 -37,976	 1,107	 -29,181	 1270,500
0,983	 -37,948	 1,107	 -29,162	 1272,250
0,986	 -37,919	 1,107	 -29,141	 1274,000
0,977	 -37,891	 1,107	 -29,113	 1275,750
0,981	 -37,861	 1,107	 -29,094	 1277,500
0,976	 -37,835	 1,107	 -29,075	 1279,250
0,973	 -37,808	 1,107	 -29,057	 1281,000
0,966	 -37,778	 1,107	 -29,033	 1282,750
0,971	 -37,750	 1,107	 -29,011	 1284,500
0,967	 -37,722	 1,107	 -28,996	 1286,250
0,968	 -37,693	 1,107	 -28,968	 1288,000
0,966	 -37,661	 1,107	 -28,948	 1289,750
0,966	 -37,638	 1,107	 -28,926	 1291,500
0,961	 -37,610	 1,107	 -28,904	 1293,250
0,961	 -37,582	 1,107	 -28,880	 1295,000
0,959	 -37,555	 1,107	 -28,857	 1296,750
0,960	 -37,528	 1,106	 -28,833	 1298,500
0,955	 -37,501	 1,107	 -28,820	 1300,250
0,955	 -37,472	 1,107	 -28,796	 1302,000
0,954	 -37,444	 1,107	 -28,772	 1303,750
0,956	 -37,414	 1,107	 -28,750	 1305,500
0,949	 -37,391	 1,107	 -28,728	 1307,250
0,951	 -37,358	 1,107	 -28,707	 1309,000
0,944	 -37,333	 1,107	 -28,689	 1310,750
0,948	 -37,303	 1,107	 -28,668	 1312,500
0,942	 -37,275	 1,107	 -28,646	 1314,250
0,947	 -37,245	 1,107	 -28,622	 1316,000
0,934	 -37,219	 1,107	 -28,599	 1317,750
0,947	 -37,191	 1,107	 -28,579	 1319,500
0,938	 -37,168	 1,107	 -28,560	 1321,250
0,937	 -37,132	 1,107	 -28,533	 1323,000
0,934	 -37,110	 1,107	 -28,518	 1324,750
0,933	 -37,080	 1,107	 -28,491	 1326,500
0,933	 -37,053	 1,107	 -28,472	 1328,250
0,925	 -37,024	 1,107	 -28,450	 1330,000
0,931	 -36,995	 1,107	 -28,428	 1331,750
0,925	 -36,967	 1,107	 -28,404	 1333,500
0,925	 -36,938	 1,107	 -28,384	 1335,250
0,915	 -36,908	 1,107	 -28,365	 1337,000
0,919	 -36,883	 1,107	 -28,346	 1338,750
0,917	 -36,855	 1,107	 -28,324	 1340,500
0,920	 -36,829	 1,107	 -28,297	 1342,250
0,913	 -36,801	 1,107	 -28,280	 1344,000
0,920	 -36,770	 1,107	 -28,258	 1345,750
0,914	 -36,742	 1,107	 -28,236	 1347,500
0,914	 -36,710	 1,107	 -28,217	 1349,250
0,911	 -36,685	 1,107	 -28,189	 1351,000
0,911	 -36,657	 1,108	 -28,174	 1352,750
0,905	 -36,630	 1,107	 -28,149	 1354,500
0,898	 -36,601	 1,107	 -28,129	 1356,250
0,905	 -36,575	 1,107	 -28,109	 1358,000
0,897	 -36,545	 1,107	 -28,087	 1359,750
0,902	 -36,523	 1,107	 -28,062	 1361,500
0,894	 -36,496	 1,107	 -28,039	 1363,250
0,900	 -36,467	 1,107	 -28,023	 1365,000
0,891	 -36,438	 1,107	 -28,003	 1366,750
0,894	 -36,410	 1,107	 -27,981	 1368,500
0,890	 -36,380	 1,107	 -27,957	 1370,250
0,893	 -36,353	 1,107	 -27,939	 1372,000
0,885	 -36,325	 1,107	 -27,912	 1373,750
0,885	 -36,298	 1,107	 -27,889	 1375,500
0,885	 -36,270	 1,107	 -27,871	 1377,250
0,883	 -36,241	 1,107	 -27,850	 1379,000
0,881	 -36,213	 1,107	 -27,826	 1380,750
0,878	 -36,186	 1,107	 -27,804	 1382,500
0,876	 -36,156	 1,107	 -27,783	 1384,250
0,878	 -36,131	 1,107	 -27,763	 1386,000
0,872	 -36,098	 1,107	 -27,742	 1387,750
0,875	 -36,073	 1,107	 -27,719	 1389,500
0,873	 -36,041	 1,107	 -27,698	 1391,250
0,872	 -36,018	 1,107	 -27,675	 1393,000
0,868	 -35,986	 1,107	 -27,652	 1394,750
0,871	 -35,960	 1,107	 -27,634	 1396,500
0,863	 -35,932	 1,107	 -27,611	 1398,250
0,867	 -35,903	 1,107	 -27,594	 1400,000
0,862	 -35,871	 1,108	 -27,569	 1401,750
0,862	 -35,848	 1,107	 -27,549	 1403,500
0,856	 -35,817	 1,107	 -27,528	 1405,250
0,861	 -35,794	 1,107	 -27,504	 1407,000
0,852	 -35,771	 1,107	 -27,481	 1408,750
0,856	 -35,735	 1,108	 -27,468	 1410,500
0,850	 -35,707	 1,108	 -27,440	 1412,250
0,852	 -35,678	 1,108	 -27,417	 1414,000
0,849	 -35,653	 1,107	 -27,397	 1415,750
0,848	 -35,624	 1,108	 -27,373	 1417,500
0,843	 -35,599	 1,107	 -27,357	 1419,250
0,845	 -35,568	 1,108	 -27,333	 1421,000
0,835	 -35,541	 1,108	 -27,311	 1422,750
0,840	 -35,510	 1,107	 -27,291	 1424,500
0,833	 -35,484	 1,107	 -27,269	 1426,250
0,840	 -35,460	 1,108	 -27,249	 1428,000
0,834	 -35,427	 1,107	 -27,228	 1429,750
0,835	 -35,397	 1,107	 -27,206	 1431,500
0,828	 -35,371	 1,107	 -27,179	 1433,250
0,830	 -35,345	 1,107	 -27,162	 1435,000
0,821	 -35,316	 1,108	 -27,138	 1436,750
0,827	 -35,289	 1,108	 -27,119	 1438,500
0,820	 -35,258	 1,107	 -27,098	 1440,250
0,825	 -35,231	 1,107	 -27,074	 1442,000
0,819	 -35,203	 1,107	 -27,059	 1443,750
0,821	 -35,172	 1,107	 -27,035	 1445,500
0,806	 -35,149	 1,107	 -27,009	 1447,250
0,813	 -35,120	 1,107	 -26,991	 1449,000
0,810	 -35,091	 1,108	 -26,965	 1450,750
0,813	 -35,062	 1,108	 -26,952	 1452,500
0,808	 -35,037	 1,107	 -26,924	 1454,250
0,812	 -35,008	 1,108	 -26,901	 1456,000
0,804	 -34,980	 1,107	 -26,880	 1457,750
0,807	 -34,950	 1,108	 -26,855	 1459,500
0,802	 -34,922	 1,107	 -26,835	 1461,250
0,804	 -34,899	 1,108	 -26,818	 1463,000
0,799	 -34,869	 1,107	 -26,793	 1464,750
0,799	 -34,839	 1,108	 -26,771	 1466,500
0,791	 -34,812	 1,108	 -26,752	 1468,250
0,797	 -34,785	 1,107	 -26,729	 1470,000
0,789	 -34,756	 1,107	 -26,713	 1471,750
0,791	 -34,727	 1,108	 -26,689	 1473,500
0,783	 -34,698	 1,107	 -26,663	 1475,250
0,788	 -34,675	 1,108	 -26,644	 1477,000
0,788	 -34,640	 1,108	 -26,621	 1478,750
0,782	 -34,613	 1,108	 -26,597	 1480,500
0,784	 -34,584	 1,107	 -26,580	 1482,250
0,779	 -34,558	 1,108	 -26,556	 1484,000
0,776	 -34,531	 1,107	 -26,538	 1485,750
0,771	 -34,504	 1,108	 -26,517	 1487,500
0,771	 -34,477	 1,107	 -26,493	 1489,250
0,771	 -34,447	 1,108	 -26,474	 1491,000
0,766	 -34,419	 1,107	 -26,449	 1492,750
0,766	 -34,390	 1,107	 -26,425	 1494,500
0,764	 -34,360	 1,107	 -26,410	 1496,250
0,757	 -34,334	 1,107	 -26,386	 1498,000
0,764	 -34,311	 1,107	 -26,361	 1499,750
0,759	 -34,283	 1,107	 -26,344	 1501,500
0,758	 -34,256	 1,107	 -26,321	 1503,250
0,758	 -34,227	 1,107	 -26,303	 1505,000
0,758	 -34,197	 1,107	 -26,282	 1506,750
0,752	 -34,163	 1,107	 -26,257	 1508,500
0,755	 -34,142	 1,108	 -26,237	 1510,250
0,748	 -34,111	 1,107	 -26,215	 1512,000
0,748	 -34,083	 1,107	 -26,194	 1513,750
0,746	 -34,056	 1,107	 -26,173	 1515,500
0,742	 -34,027	 1,107	 -26,149	 1517,250
0,740	 -33,994	 1,107	 -26,125	 1519,000
0,744	 -33,970	 1,107	 -26,107	 1520,750
0,737	 -33,942	 1,107	 -26,086	 1522,500
0,738	 -33,917	 1,107	 -26,068	 1524,250
0,731	 -33,886	 1,107	 -26,044	 1526,000
0,734	 -33,860	 1,107	 -26,020	 1527,750
0,729	 -33,829	 1,107	 -26,000	 1529,500
0,730	 -33,800	 1,108	 -25,976	 1531,250
0,722	 -33,773	 1,107	 -25,950	 1533,000
0,725	 -33,746	 1,107	 -25,932	 1534,750
0,723	 -33,721	 1,107	 -25,909	 1536,500
0,724	 -33,692	 1,107	 -25,890	 1538,250
0,715	 -33,661	 1,107	 -25,869	 1540,000
0,718	 -33,635	 1,107	 -25,849	 1541,750
0,711	 -33,606	 1,107	 -25,829	 1543,500
0,716	 -33,581	 1,107	 -25,805	 1545,250
0,709	 -33,549	 1,107	 -25,782	 1547,000
0,709	 -33,521	 1,107	 -25,761	 1548,750
0,704	 -33,493	 1,107	 -25,740	 1550,500
0,701	 -33,471	 1,107	 -25,715	 1552,250
0,701	 -33,437	 1,107	 -25,696	 1554,000
0,700	 -33,412	 1,107	 -25,674	 1555,750
0,697	 -33,379	 1,108	 -25,654	 1557,500
0,695	 -33,357	 1,107	 -25,634	 1559,250
0,690	 -33,325	 1,107	 -25,612	 1561,000
0,692	 -33,298	 1,107	 -25,590	 1562,750
0,688	 -33,269	 1,108	 -25,570	 1564,500
0,686	 -33,242	 1,107	 -25,546	 1566,250
0,681	 -33,214	 1,107	 -25,527	 1568,000
0,680	 -33,185	 1,107	 -25,506	 1569,750
0,678	 -33,157	 1,107	 -25,482	 1571,500
0,677	 -33,134	 1,107	 -25,464	 1573,250
0,670	 -33,103	 1,107	 -25,439	 1575,000
0,675	 -33,077	 1,108	 -25,421	 1576,750
0,669	 -33,048	 1,107	 -25,397	 1578,500
0,670	 -33,021	 1,107	 -25,374	 1580,250
0,661	 -32,990	 1,108	 -25,356	 1582,000
0,668	 -32,962	 1,107	 -25,334	 1583,750
0,662	 -32,936	 1,107	 -25,313	 1585,500
0,663	 -32,908	 1,107	 -25,288	 1587,250
0,658	 -32,876	 1,107	 -25,267	 1589,000
0,658	 -32,850	 1,108	 -25,251	 1590,750
0,653	 -32,821	 1,107	 -25,227	 1592,500
0,653	 -32,798	 1,107	 -25,204	 1594,250
0,648	 -32,770	 1,107	 -25,185	 1596,000
0,651	 -32,736	 1,107	 -25,160	 1597,750
0,644	 -32,708	 1,108	 -25,141	 1599,500
0,647	 -32,684	 1,107	 -25,119	 1601,250
0,639	 -32,654	 1,107	 -25,100	 1603,000
0,639	 -32,628	 1,107	 -25,073	 1604,750
0,632	 -32,597	 1,107	 -25,053	 1606,500
0,639	 -32,572	 1,107	 -25,034	 1608,250
0,627	 -32,541	 1,108	 -25,012	 1610,000
0,633	 -32,512	 1,107	 -24,988	 1611,750
0,624	 -32,488	 1,107	 -24,961	 1613,500
0,625	 -32,459	 1,107	 -24,944	 1615,250
0,622	 -32,429	 1,108	 -24,924	 1617,000
0,616	 -32,401	 1,107	 -24,897	 1618,750
0,620	 -32,375	 1,107	 -24,880	 1620,500
0,613	 -32,347	 1,107	 -24,857	 1622,250
0,615	 -32,320	 1,107	 -24,834	 1624,000
0,604	 -32,290	 1,107	 -24,815	 1625,750
0,610	 -32,259	 1,107	 -24,793	 1627,500
0,602	 -32,234	 1,107	 -24,773	 1629,250
0,609	 -32,208	 1,108	 -24,750	 1631,000
0,600	 -32,177	 1,108	 -24,729	 1632,750
0,602	 -32,152	 1,107	 -24,710	 1634,500
0,595	 -32,124	 1,108	 -24,686	 1636,250
0,600	 -32,101	 1,107	 -24,661	 1638,000
0,589	 -32,066	 1,107	 -24,643	 1639,750
0,595	 -32,042	 1,107	 -24,624	 1641,500
0,587	 -32,011	 1,107	 -24,601	 1643,250
0,587	 -31,979	 1,107	 -24,576	 1645,000
0,579	 -31,952	 1,108	 -24,552	 1646,750
0,582	 -31,929	 1,107	 -24,537	 1648,500
0,572	 -31,899	 1,108	 -24,515	 1650,250
0,578	 -31,871	 1,107	 -24,493	 1652,000
0,569	 -31,840	 1,107	 -24,470	 1653,750
0,572	 -31,812	 1,107	 -24,450	 1655,500
0,567	 -31,786	 1,108	 -24,427	 1657,250
0,568	 -31,756	 1,107	 -24,410	 1659,000
0,560	 -31,729	 1,107	 -24,386	 1660,750
0,563	 -31,699	 1,107	 -24,373	 1662,500
0,557	 -31,673	 1,108	 -24,348	 1664,250
0,557	 -31,645	 1,107	 -24,321	 1666,000
0,550	 -31,621	 1,108	 -24,303	 1667,750
0,557	 -31,590	 1,108	 -24,277	 1669,500
0,547	 -31,565	 1,108	 -24,256	 1671,250
0,554	 -31,535	 1,107	 -24,234	 1673,000
0,541	 -31,508	 1,108	 -24,215	 1674,750
0,547	 -31,480	 1,107	 -24,191	 1676,500
0,536	 -31,451	 1,107	 -24,168	 1678,250
0,543	 -31,417	 1,107	 -24,147	 1680,000
0,537	 -31,390	 1,107	 -24,128	 1681,750
0,536	 -31,360	 1,107	 -24,108	 1683,500
0,532	 -31,333	 1,108	 -24,085	 1685,250
0,532	 -31,307	 1,108	 -24,066	 1687,000
0,527	 -31,280	 1,107	 -24,042	 1688,750
0,526	 -31,256	 1,108	 -24,025	 1690,500
0,518	 -31,227	 1,107	 -23,996	 1692,250
0,521	 -31,195	 1,107	 -23,973	 1694,000
0,513	 -31,171	 1,107	 -23,955	 1695,750
0,516	 -31,142	 1,107	 -23,933	 1697,500
0,514	 -31,112	 1,107	 -23,909	 1699,250
0,508	 -31,083	 1,107	 -23,889	 1701,000
0,509	 -31,055	 1,107	 -23,867	 1702,750
0,502	 -31,030	 1,108	 -23,846	 1704,500
0,510	 -30,998	 1,107	 -23,827	 1706,250
0,496	 -30,973	 1,107	 -23,805	 1708,000
0,503	 -30,944	 1,107	 -23,783	 1709,750
0,493	 -30,919	 1,108	 -23,762	 1711,500
0,500	 -30,887	 1,107	 -23,735	 1713,250
0,488	 -30,861	 1,107	 -23,717	 1715,000
0,492	 -30,830	 1,108	 -23,700	 1716,750
0,486	 -30,806	 1,108	 -23,673	 1718,500
0,486	 -30,774	 1,107	 -23,653	 1720,250
0,477	 -30,745	 1,108	 -23,632	 1722,000
0,480	 -30,716	 1,108	 -23,612	 1723,750
0,473	 -30,693	 1,108	 -23,593	 1725,500
0,474	 -30,663	 1,107	 -23,570	 1727,250
0,469	 -30,638	 1,108	 -23,548	 1729,000
0,471	 -30,605	 1,108	 -23,529	 1730,750
0,464	 -30,580	 1,108	 -23,502	 1732,500
0,467	 -30,552	 1,108	 -23,485	 1734,250
0,456	 -30,525	 1,108	 -23,458	 1736,000
0,460	 -30,498	 1,108	 -23,438	 1737,750
0,453	 -30,468	 1,107	 -23,418	 1739,500
0,453	 -30,440	 1,108	 -23,395	 1741,250
0,449	 -30,408	 1,108	 -23,373	 1743,000
0,453	 -30,384	 1,107	 -23,356	 1744,750
0,445	 -30,352	 1,108	 -23,333	 1746,500
0,445	 -30,324	 1,108	 -23,314	 1748,250
0,439	 -30,298	 1,108	 -23,292	 1750,000
0,440	 -30,272	 1,108	 -23,268	 1751,750
0,434	 -30,242	 1,108	 -23,246	 1753,500
0,433	 -30,217	 1,108	 -23,224	 1755,250
0,428	 -30,189	 1,108	 -23,199	 1757,000
0,431	 -30,160	 1,108	 -23,182	 1758,750
0,430	 -30,136	 1,108	 -23,158	 1760,500
0,418	 -30,103	 1,108	 -23,136	 1762,250
0,425	 -30,074	 1,108	 -23,127	 1764,000
0,418	 -30,046	 1,108	 -23,095	 1765,750
0,419	 -30,023	 1,108	 -23,070	 1767,500
0,413	 -29,994	 1,108	 -23,053	 1769,250
0,422	 -29,969	 1,108	 -23,027	 1771,000
0,407	 -29,934	 1,108	 -23,009	 1772,750
0,413	 -29,910	 1,107	 -22,985	 1774,500
0,403	 -29,876	 1,108	 -22,959	 1776,250
0,403	 -29,849	 1,107	 -22,942	 1778,000
0,400	 -29,821	 1,108	 -22,919	 1779,750
0,398	 -29,794	 1,108	 -22,899	 1781,500
0,391	 -29,767	 1,108	 -22,880	 1783,250
0,394	 -29,741	 1,108	 -22,856	 1785,000
0,389	 -29,714	 1,108	 -22,834	 1786,750
0,392	 -29,685	 1,108	 -22,812	 1788,500
0,383	 -29,654	 1,108	 -22,790	 1790,250
0,382	 -29,628	 1,108	 -22,771	 1792,000
0,378	 -29,601	 1,108	 -22,751	 1793,750
0,380	 -29,570	 1,108	 -22,726	 1795,500
0,374	 -29,541	 1,108	 -22,707	 1797,250
0,374	 -29,515	 1,108	 -22,685	 1799,000
0,369	 -29,487	 1,108	 -22,663	 1800,750
0,362	 -29,462	 1,108	 -22,642	 1802,500
0,363	 -29,430	 1,108	 -22,624	 1804,250
0,359	 -29,402	 1,108	 -22,602	 1806,000
0,363	 -29,374	 1,108	 -22,580	 1807,750
0,354	 -29,347	 1,108	 -22,556	 1809,500
0,357	 -29,318	 1,107	 -22,536	 1811,250
0,346	 -29,292	 1,107	 -22,514	 1813,000
0,349	 -29,260	 1,108	 -22,492	 1814,750
0,344	 -29,232	 1,108	 -22,468	 1816,500
0,345	 -29,207	 1,108	 -22,449	 1818,250
0,338	 -29,177	 1,108	 -22,431	 1820,000
0,341	 -29,148	 1,108	 -22,409	 1821,750
0,335	 -29,126	 1,108	 -22,386	 1823,500
0,335	 -29,095	 1,108	 -22,364	 1825,250
0,332	 -29,066	 1,108	 -22,345	 1827,000
0,322	 -29,042	 1,107	 -22,319	 1828,750
0,326	 -29,013	 1,108	 -22,298	 1830,500
0,318	 -28,982	 1,108	 -22,277	 1832,250
0,321	 -28,954	 1,108	 -22,257	 1834,000
0,315	 -28,931	 1,107	 -22,239	 1835,750
0,315	 -28,901	 1,108	 -22,213	 1837,500
0,310	 -28,870	 1,108	 -22,193	 1839,250
0,309	 -28,842	 1,108	 -22,170	 1841,000
0,302	 -28,817	 1,108	 -22,146	 1842,750
0,306	 -28,790	 1,108	 -22,128	 1844,500
0,302	 -28,758	 1,108	 -22,104	 1846,250
0,300	 -28,730	 1,107	 -22,086	 1848,000
0,293	 -28,705	 1,108	 -22,065	 1849,750
0,296	 -28,671	 1,108	 -22,036	 1851,500
0,291	 -28,646	 1,108	 -22,017	 1853,250
0,287	 -28,617	 1,108	 -21,993	 1855,000
0,289	 -28,590	 1,108	 -21,973	 1856,750
0,280	 -28,563	 1,108	 -21,952	 1858,500
0,279	 -28,536	 1,108	 -21,931	 1860,250
0,273	 -28,505	 1,108	 -21,909	 1862,000
0,275	 -28,478	 1,108	 -21,892	 1863,750
0,269	 -28,451	 1,108	 -21,868	 1865,500
0,269	 -28,427	 1,107	 -21,848	 1867,250
0,265	 -28,395	 1,108	 -21,822	 1869,000
0,268	 -28,367	 1,108	 -21,803	 1870,750
0,265	 -28,337	 1,108	 -21,782	 1872,500
0,260	 -28,310	 1,108	 -21,758	 1874,250
0,254	 -28,280	 1,108	 -21,736	 1876,000
0,257	 -28,252	 1,108	 -21,718	 1877,750
0,249	 -28,229	 1,108	 -21,697	 1879,500
0,253	 -28,197	 1,108	 -21,670	 1881,250
0,244	 -28,171	 1,108	 -21,654	 1883,000
0,246	 -28,142	 1,107	 -21,630	 1884,750
0,238	 -28,117	 1,108	 -21,614	 1886,500
0,240	 -28,085	 1,108	 -21,590	 1888,250
0,237	 -28,059	 1,108	 -21,565	 1890,000
0,237	 -28,031	 1,108	 -21,549	 1891,750
0,228	 -28,003	 1,108	 -21,524	 1893,500
0,233	 -27,974	 1,108	 -21,502	 1895,250
0,221	 -27,947	 1,108	 -21,478	 1897,000
0,225	 -27,918	 1,108	 -21,457	 1898,750
0,219	 -27,891	 1,108	 -21,438	 1900,500
0,219	 -27,863	 1,108	 -21,418	 1902,250
0,214	 -27,840	 1,108	 -21,396	 1904,000
0,215	 -27,808	 1,108	 -21,377	 1905,750
0,208	 -27,780	 1,108	 -21,350	 1907,500
0,210	 -27,750	 1,108	 -21,329	 1909,250
0,203	 -27,722	 1,108	 -21,313	 1911,000
0,205	 -27,695	 1,108	 -21,287	 1912,750
0,203	 -27,666	 1,108	 -21,264	 1914,500
0,198	 -27,639	 1,108	 -21,247	 1916,250
0,197	 -27,611	 1,108	 -21,221	 1918,000
0,190	 -27,583	 1,108	 -21,202	 1919,750
0,192	 -27,555	 1,108	 -21,182	 1921,500
0,186	 -27,527	 1,108	 -21,160	 1923,250
0,186	 -27,500	 1,108	 -21,140	 1925,000
0,180	 -27,475	 1,108	 -21,119	 1926,750
0,183	 -27,446	 1,108	 -21,097	 1928,500
0,171	 -27,416	 1,108	 -21,074	 1930,250
0,180	 -27,385	 1,108	 -21,048	 1932,000
0,170	 -27,358	 1,108	 -21,027	 1933,750
0,177	 -27,330	 1,108	 -21,007	 1935,500
0,165	 -27,303	 1,108	 -20,985	 1937,250
0,169	 -27,272	 1,108	 -20,967	 1939,000
0,159	 -27,245	 1,108	 -20,945	 1940,750
0,162	 -27,217	 1,108	 -20,923	 1942,500
0,156	 -27,188	 1,108	 -20,899	 1944,250
0,157	 -27,162	 1,108	 -20,878	 1946,000
0,152	 -27,132	 1,108	 -20,857	 1947,750
0,155	 -27,106	 1,108	 -20,836	 1949,500
0,147	 -27,078	 1,108	 -20,813	 1951,250
0,149	 -27,049	 1,108	 -20,790	 1953,000
0,147	 -27,020	 1,108	 -20,769	 1954,750
0,147	 -26,991	 1,108	 -20,747	 1956,500
0,140	 -26,966	 1,108	 -20,729	 1958,250
0,142	 -26,936	 1,108	 -20,706	 1960,000
0,134	 -26,909	 1,108	 -20,684	 1961,750
0,135	 -26,879	 1,108	 -20,665	 1963,500
0,129	 -26,851	 1,108	 -20,643	 1965,250
0,131	 -26,825	 1,108	 -20,621	 1967,000
0,124	 -26,798	 1,108	 -20,603	 1968,750
0,121	 -26,770	 1,108	 -20,577	 1970,500
0,116	 -26,745	 1,108	 -20,555	 1972,250
0,122	 -26,717	 1,108	 -20,535	 1974,000
0,115	 -26,689	 1,108	 -20,513	 1975,750
0,115	 -26,658	 1,108	 -20,494	 1977,500
0,116	 -26,632	 1,108	 -20,470	 1979,250
0,107	 -26,602	 1,108	 -20,445	 1981,000
0,110	 -26,574	 1,108	 -20,428	 1982,750
0,104	 -26,543	 1,108	 -20,406	 1984,500
0,109	 -26,513	 1,108	 -20,384	 1986,250
0,102	 -26,485	 1,108	 -20,365	 1988,000
0,100	 -26,461	 1,108	 -20,342	 1989,750
0,098	 -26,432	 1,108	 -20,323	 1991,500
0,100	 -26,403	 1,108	 -20,297	 1993,250
0,098	 -26,376	 1,108	 -20,277	 1995,000
0,099	 -26,349	 1,108	 -20,258	 1996,750
0,087	 -26,321	 1,108	 -20,236	 1998,500
0,092	 -26,294	 1,108	 -20,212	 2000,250
0,087	 -26,265	 1,108	 -20,195	 2002,000
0,086	 -26,235	 1,108	 -20,172	 2003,750
0,074	 -26,206	 1,109	 -20,151	 2005,500
0,078	 -26,180	 1,108	 -20,129	 2007,250
0,067	 -26,154	 1,108	 -20,105	 2009,000
0,071	 -26,125	 1,108	 -20,082	 2010,750
0,066	 -26,099	 1,108	 -20,059	 2012,500
0,069	 -26,069	 1,108	 -20,036	 2014,250
0,060	 -26,038	 1,108	 -20,017	 2016,000
0,065	 -26,010	 1,108	 -19,994	 2017,750
0,058	 -25,985	 1,108	 -19,972	 2019,500
0,061	 -25,957	 1,108	 -19,950	 2021,250
0,054	 -25,925	 1,108	 -19,931	 2023,000
0,059	 -25,901	 1,108	 -19,911	 2024,750
0,054	 -25,874	 1,108	 -19,889	 2026,500
0,057	 -25,845	 1,108	 -19,867	 2028,250
0,049	 -25,816	 1,108	 -19,841	 2030,000
0,048	 -25,791	 1,108	 -19,824	 2031,750
0,048	 -25,762	 1,108	 -19,799	 2033,500
0,050	 -25,731	 1,108	 -19,781	 2035,250
0,041	 -25,705	 1,108	 -19,759	 2037,000
0,048	 -25,676	 1,108	 -19,733	 2038,750
0,041	 -25,647	 1,108	 -19,722	 2040,500
0,045	 -25,622	 1,108	 -19,695	 2042,250
0,038	 -25,591	 1,108	 -19,674	 2044,000
0,036	 -25,565	 1,108	 -19,654	 2045,750
0,037	 -25,536	 1,108	 -19,630	 2047,500
0,035	 -25,508	 1,108	 -19,613	 2049,250
0,038	 -25,479	 1,108	 -19,588	 2051,000
0,030	 -25,451	 1,108	 -19,566	 2052,750
0,036	 -25,426	 1,109	 -19,543	 2054,500
0,030	 -25,395	 1,109	 -19,522	 2056,250
0,034	 -25,366	 1,108	 -19,501	 2058,000
0,026	 -25,341	 1,108	 -19,484	 2059,750
0,027	 -25,307	 1,109	 -19,462	 2061,500
0,023	 -25,281	 1,108	 -19,440	 2063,250
0,027	 -25,254	 1,108	 -19,414	 2065,000
0,024	 -25,225	 1,108	 -19,390	 2066,750
0,027	 -25,199	 1,108	 -19,373	 2068,500
0,021	 -25,173	 1,108	 -19,352	 2070,250
0,031	 -25,142	 1,108	 -19,327	 2072,000
0,028	 -25,118	 1,108	 -19,311	 2073,750
0,024	 -25,086	 1,108	 -19,284	 2075,500
0,027	 -25,062	 1,108	 -19,266	 2077,250
0,024	 -25,036	 1,108	 -19,244	 2079,000
0,028	 -25,005	 1,108	 -19,223	 2080,750
0,021	 -24,979	 1,108	 -19,203	 2082,500
0,031	 -24,951	 1,108	 -19,182	 2084,250
0,024	 -24,943	 1,108	 -19,178	 2084,500