File: examples/data_example_6.txt
WORKSHOP 3 EXPORTED DATA: [C:\Documents and Settings\Administrator\Pulpit\Rozciaganie\w5_1.W01 - 1]
*************************************************************************************************
Source of data: ScriptPl
WS3 File Version: 1,05
Number of bytes in subfile: 76187
Total number of data points: 3784
Test date: 30-01-2018
Test time: 15:27:15
Player Step: 1
Step Capture No: 1
Actuator: 1
*************************************************************************************************
Actuator: 1  Channel:0	 Actuator: 1  Channel:1	 Actuator: 1  Channel:2	 Actuator: 1  Channel:3	 Actuator: 1  Channel:4
Load (kN)	 Stroke (mm)	 Extension (mm)	 Command (%)	 Time (s)
1,329	 -51,667	 -0,121	 -39,709	 0,000
1,350	 -51,669	 -0,121	 -39,705	 0,400
1,415	 -51,667	 -0,121	 -39,700	 0,800
1,485	 -51,660	 -0,121	 -39,696	 1,200
1,559	 -51,666	 -0,121	 -39,697	 1,600
1,635	 -51,659	 -0,120	 -39,696	 2,000
1,742	 -51,659	 -0,120	 -39,690	 2,400
1,891	 -51,653	 -0,120	 -39,683	 2,800
2,053	 -51,648	 -0,119	 -39,678	 3,200
2,210	 -51,646	 -0,119	 -39,683	 3,600
2,403	 -51,643	 -0,118	 -39,680	 4,000
2,594	 -51,631	 -0,117	 -39,670	 4,400
2,734	 -51,631	 -0,117	 -39,667	 4,800
2,903	 -51,624	 -0,116	 -39,662	 5,200
3,057	 -51,624	 -0,116	 -39,660	 5,600
3,202	 -51,620	 -0,115	 -39,665	 6,000
3,353	 -51,616	 -0,115	 -39,654	 6,400
3,506	 -51,616	 -0,114	 -39,648	 6,800
3,712	 -51,610	 -0,113	 -39,644	 7,200
3,858	 -51,605	 -0,113	 -39,647	 7,600
3,976	 -51,602	 -0,112	 -39,643	 8,000
4,238	 -51,601	 -0,111	 -39,638	 8,400
4,382	 -51,595	 -0,111	 -39,634	 8,800
4,536	 -51,587	 -0,110	 -39,629	 9,200
4,726	 -51,588	 -0,109	 -39,628	 9,600
4,891	 -51,581	 -0,108	 -39,627	 10,000
5,079	 -51,579	 -0,108	 -39,622	 10,400
5,220	 -51,574	 -0,107	 -39,616	 10,800
5,407	 -51,573	 -0,106	 -39,615	 11,200
5,653	 -51,569	 -0,105	 -39,617	 11,600
5,781	 -51,560	 -0,104	 -39,610	 12,000
5,958	 -51,561	 -0,104	 -39,605	 12,400
6,177	 -51,558	 -0,103	 -39,602	 12,800
6,341	 -51,550	 -0,102	 -39,597	 13,200
6,506	 -51,544	 -0,101	 -39,599	 13,600
6,725	 -51,551	 -0,100	 -39,596	 14,000
6,880	 -51,536	 -0,100	 -39,593	 14,400
7,034	 -51,536	 -0,099	 -39,589	 14,800
7,220	 -51,536	 -0,098	 -39,584	 15,200
7,451	 -51,532	 -0,097	 -39,579	 15,600
7,665	 -51,520	 -0,097	 -39,582	 16,000
7,899	 -51,523	 -0,095	 -39,576	 16,400
8,027	 -51,518	 -0,095	 -39,574	 16,800
8,169	 -51,518	 -0,094	 -39,567	 17,200
8,316	 -51,511	 -0,093	 -39,564	 17,600
8,482	 -51,503	 -0,093	 -39,564	 18,000
8,698	 -51,505	 -0,092	 -39,560	 18,400
8,893	 -51,497	 -0,091	 -39,557	 18,800
9,050	 -51,496	 -0,090	 -39,554	 19,200
9,226	 -51,490	 -0,090	 -39,549	 19,600
9,417	 -51,491	 -0,088	 -39,550	 20,000
9,636	 -51,486	 -0,087	 -39,545	 20,400
9,830	 -51,484	 -0,087	 -39,542	 20,800
9,977	 -51,478	 -0,086	 -39,536	 21,200
10,208	 -51,470	 -0,085	 -39,530	 21,600
10,416	 -51,468	 -0,084	 -39,533	 22,000
10,580	 -51,463	 -0,083	 -39,532	 22,400
10,774	 -51,459	 -0,082	 -39,527	 22,800
10,989	 -51,453	 -0,081	 -39,519	 23,200
11,216	 -51,450	 -0,080	 -39,520	 23,600
11,382	 -51,447	 -0,079	 -39,517	 24,000
11,559	 -51,440	 -0,078	 -39,513	 24,400
11,764	 -51,441	 -0,078	 -39,510	 24,800
11,951	 -51,438	 -0,077	 -39,507	 25,200
12,137	 -51,433	 -0,076	 -39,501	 25,600
12,363	 -51,429	 -0,075	 -39,501	 26,000
12,583	 -51,422	 -0,074	 -39,499	 26,400
12,731	 -51,418	 -0,073	 -39,496	 26,800
12,965	 -51,418	 -0,072	 -39,492	 27,200
13,210	 -51,412	 -0,071	 -39,490	 27,600
13,367	 -51,411	 -0,070	 -39,489	 28,000
13,601	 -51,404	 -0,069	 -39,486	 28,400
13,765	 -51,401	 -0,068	 -39,480	 28,800
14,003	 -51,395	 -0,067	 -39,477	 29,200
14,175	 -51,394	 -0,066	 -39,470	 29,600
14,397	 -51,390	 -0,065	 -39,472	 30,000
14,576	 -51,386	 -0,065	 -39,468	 30,400
14,797	 -51,383	 -0,063	 -39,463	 30,800
15,003	 -51,377	 -0,063	 -39,463	 31,200
15,275	 -51,373	 -0,061	 -39,458	 31,600
15,424	 -51,370	 -0,060	 -39,454	 32,000
15,597	 -51,363	 -0,059	 -39,454	 32,400
15,784	 -51,362	 -0,058	 -39,450	 32,800
16,051	 -51,356	 -0,057	 -39,447	 33,200
16,210	 -51,353	 -0,056	 -39,442	 33,600
16,449	 -51,349	 -0,055	 -39,437	 34,000
16,623	 -51,345	 -0,054	 -39,437	 34,400
16,852	 -51,341	 -0,053	 -39,433	 34,800
17,054	 -51,337	 -0,052	 -39,432	 35,200
17,285	 -51,332	 -0,050	 -39,426	 35,600
17,463	 -51,330	 -0,050	 -39,423	 36,000
17,686	 -51,327	 -0,048	 -39,424	 36,400
17,842	 -51,325	 -0,048	 -39,420	 36,800
18,062	 -51,320	 -0,046	 -39,415	 37,200
18,306	 -51,318	 -0,045	 -39,413	 37,600
18,512	 -51,313	 -0,043	 -39,409	 38,000
18,689	 -51,309	 -0,043	 -39,410	 38,400
18,913	 -51,306	 -0,042	 -39,406	 38,800
19,161	 -51,300	 -0,040	 -39,402	 39,200
19,322	 -51,299	 -0,039	 -39,397	 39,600
19,570	 -51,293	 -0,038	 -39,393	 40,000
19,763	 -51,287	 -0,037	 -39,395	 40,400
19,989	 -51,285	 -0,036	 -39,391	 40,800
20,159	 -51,280	 -0,035	 -39,388	 41,200
20,363	 -51,278	 -0,033	 -39,383	 41,600
20,609	 -51,274	 -0,032	 -39,380	 42,000
20,794	 -51,271	 -0,030	 -39,378	 42,400
20,999	 -51,268	 -0,029	 -39,371	 42,800
21,202	 -51,264	 -0,028	 -39,372	 43,200
21,457	 -51,257	 -0,026	 -39,367	 43,600
21,679	 -51,255	 -0,025	 -39,364	 44,000
21,814	 -51,248	 -0,024	 -39,364	 44,400
22,089	 -51,246	 -0,022	 -39,358	 44,800
22,349	 -51,242	 -0,019	 -39,354	 45,200
22,501	 -51,239	 -0,018	 -39,350	 45,600
22,699	 -51,235	 -0,016	 -39,346	 46,000
22,897	 -51,228	 -0,014	 -39,346	 46,400
23,102	 -51,227	 -0,013	 -39,344	 46,800
23,302	 -51,223	 -0,011	 -39,341	 47,200
23,490	 -51,220	 -0,009	 -39,335	 47,600
23,693	 -51,216	 -0,007	 -39,332	 48,000
23,893	 -51,213	 -0,005	 -39,332	 48,400
24,077	 -51,208	 -0,004	 -39,328	 48,800
24,333	 -51,205	 -0,002	 -39,323	 49,200
24,492	 -51,201	 -0,001	 -39,318	 49,600
24,700	 -51,199	 0,001	 -39,316	 50,000
24,898	 -51,191	 0,003	 -39,314	 50,400
25,116	 -51,193	 0,005	 -39,310	 50,800
25,307	 -51,188	 0,007	 -39,310	 51,200
25,544	 -51,184	 0,008	 -39,301	 51,600
25,764	 -51,178	 0,010	 -39,300	 52,000
25,967	 -51,177	 0,011	 -39,297	 52,400
26,131	 -51,171	 0,013	 -39,297	 52,800
26,301	 -51,166	 0,014	 -39,293	 53,200
26,524	 -51,163	 0,015	 -39,289	 53,600
26,695	 -51,161	 0,017	 -39,285	 54,000
26,886	 -51,155	 0,018	 -39,281	 54,400
27,099	 -51,151	 0,019	 -39,280	 54,800
27,317	 -51,149	 0,020	 -39,279	 55,200
27,509	 -51,146	 0,021	 -39,275	 55,600
27,734	 -51,140	 0,022	 -39,270	 56,000
27,885	 -51,137	 0,022	 -39,266	 56,400
28,145	 -51,133	 0,024	 -39,266	 56,800
28,314	 -51,126	 0,025	 -39,261	 57,200
28,518	 -51,124	 0,026	 -39,260	 57,600
28,798	 -51,123	 0,027	 -39,256	 58,000
29,032	 -51,117	 0,028	 -39,253	 58,400
29,144	 -51,116	 0,029	 -39,252	 58,800
29,359	 -51,114	 0,030	 -39,248	 59,200
29,556	 -51,105	 0,030	 -39,242	 59,600
29,811	 -51,103	 0,032	 -39,239	 60,000
29,942	 -51,100	 0,032	 -39,238	 60,400
30,175	 -51,094	 0,033	 -39,238	 60,800
30,347	 -51,089	 0,034	 -39,233	 61,200
30,528	 -51,085	 0,035	 -39,230	 61,600
30,699	 -51,082	 0,036	 -39,225	 62,000
30,910	 -51,079	 0,037	 -39,222	 62,400
31,105	 -51,076	 0,038	 -39,221	 62,800
31,301	 -51,071	 0,039	 -39,218	 63,200
31,544	 -51,070	 0,040	 -39,214	 63,600
31,707	 -51,065	 0,041	 -39,212	 64,000
31,999	 -51,060	 0,043	 -39,209	 64,400
32,139	 -51,058	 0,043	 -39,209	 64,800
32,264	 -51,054	 0,044	 -39,205	 65,200
32,512	 -51,046	 0,045	 -39,201	 65,600
32,693	 -51,045	 0,046	 -39,197	 66,000
32,869	 -51,042	 0,047	 -39,193	 66,400
33,100	 -51,038	 0,048	 -39,189	 66,800
33,320	 -51,036	 0,049	 -39,190	 67,200
33,529	 -51,031	 0,050	 -39,183	 67,600
33,677	 -51,028	 0,051	 -39,179	 68,000
33,883	 -51,024	 0,052	 -39,179	 68,400
34,120	 -51,021	 0,053	 -39,173	 68,800
34,264	 -51,017	 0,054	 -39,172	 69,200
34,535	 -51,009	 0,055	 -39,170	 69,600
34,722	 -51,008	 0,057	 -39,166	 70,000
34,902	 -51,004	 0,057	 -39,163	 70,400
35,059	 -51,002	 0,058	 -39,159	 70,800
35,324	 -50,996	 0,059	 -39,157	 71,200
35,464	 -50,996	 0,060	 -39,152	 71,600
35,678	 -50,992	 0,061	 -39,150	 72,000
35,893	 -50,987	 0,062	 -39,145	 72,400
36,134	 -50,981	 0,064	 -39,143	 72,800
36,319	 -50,978	 0,064	 -39,142	 73,200
36,497	 -50,975	 0,065	 -39,138	 73,600
36,684	 -50,971	 0,066	 -39,134	 74,000
36,868	 -50,971	 0,067	 -39,130	 74,400
37,086	 -50,963	 0,068	 -39,124	 74,800
37,265	 -50,961	 0,069	 -39,126	 75,200
37,506	 -50,956	 0,070	 -39,121	 75,600
37,705	 -50,952	 0,072	 -39,119	 76,000
37,900	 -50,951	 0,073	 -39,111	 76,400
38,056	 -50,941	 0,074	 -39,107	 76,800
38,259	 -50,941	 0,075	 -39,110	 77,200
38,432	 -50,936	 0,076	 -39,103	 77,600
38,631	 -50,935	 0,077	 -39,105	 78,000
38,821	 -50,931	 0,078	 -39,100	 78,400
39,053	 -50,926	 0,079	 -39,095	 78,800
39,246	 -50,921	 0,080	 -39,095	 79,200
39,418	 -50,918	 0,082	 -39,091	 79,600
39,576	 -50,916	 0,082	 -39,085	 80,000
39,815	 -50,910	 0,084	 -39,086	 80,400
39,983	 -50,905	 0,084	 -39,080	 80,800
40,163	 -50,903	 0,085	 -39,082	 81,200
40,451	 -50,893	 0,087	 -39,078	 81,600
40,584	 -50,895	 0,087	 -39,072	 82,000
40,762	 -50,890	 0,089	 -39,068	 82,400
41,006	 -50,888	 0,090	 -39,065	 82,800
41,186	 -50,881	 0,092	 -39,062	 83,200
41,332	 -50,880	 0,093	 -39,062	 83,600
41,583	 -50,878	 0,094	 -39,058	 84,000
41,715	 -50,872	 0,095	 -39,055	 84,400
41,921	 -50,866	 0,096	 -39,047	 84,800
42,088	 -50,862	 0,097	 -39,046	 85,200
42,263	 -50,858	 0,098	 -39,047	 85,600
42,399	 -50,855	 0,099	 -39,044	 86,000
42,588	 -50,849	 0,101	 -39,038	 86,400
42,812	 -50,849	 0,102	 -39,038	 86,800
42,984	 -50,846	 0,103	 -39,033	 87,200
43,194	 -50,839	 0,105	 -39,032	 87,600
43,330	 -50,838	 0,107	 -39,028	 88,000
43,493	 -50,833	 0,108	 -39,025	 88,400
43,616	 -50,829	 0,109	 -39,019	 88,800
43,823	 -50,825	 0,111	 -39,018	 89,200
44,004	 -50,820	 0,112	 -39,018	 89,600
44,092	 -50,818	 0,113	 -39,014	 90,000
44,368	 -50,811	 0,115	 -39,010	 90,400
44,469	 -50,809	 0,116	 -39,005	 90,800
44,570	 -50,807	 0,118	 -39,002	 91,200
44,745	 -50,802	 0,120	 -39,000	 91,600
44,847	 -50,799	 0,121	 -38,997	 92,000
44,972	 -50,799	 0,123	 -38,994	 92,400
45,111	 -50,792	 0,125	 -38,992	 92,800
45,275	 -50,787	 0,127	 -38,986	 93,200
45,346	 -50,785	 0,129	 -38,985	 93,600
45,479	 -50,780	 0,131	 -38,983	 94,000
45,582	 -50,774	 0,134	 -38,978	 94,400
45,657	 -50,771	 0,136	 -38,971	 94,800
45,751	 -50,767	 0,138	 -38,970	 95,200
45,819	 -50,763	 0,140	 -38,970	 95,600
45,911	 -50,759	 0,143	 -38,966	 96,000
45,985	 -50,757	 0,145	 -38,959	 96,400
46,054	 -50,750	 0,147	 -38,958	 96,800
46,092	 -50,747	 0,150	 -38,956	 97,200
46,161	 -50,745	 0,153	 -38,955	 97,600
46,209	 -50,741	 0,155	 -38,950	 98,000
46,265	 -50,736	 0,158	 -38,950	 98,400
46,338	 -50,728	 0,160	 -38,944	 98,800
46,393	 -50,727	 0,164	 -38,940	 99,200
46,426	 -50,728	 0,167	 -38,935	 99,600
46,472	 -50,719	 0,170	 -38,937	 100,000
46,501	 -50,718	 0,173	 -38,934	 100,400
46,542	 -50,713	 0,176	 -38,929	 100,800
46,591	 -50,705	 0,179	 -38,924	 101,200
46,622	 -50,703	 0,182	 -38,922	 101,600
46,646	 -50,699	 0,185	 -38,922	 102,000
46,677	 -50,695	 0,188	 -38,918	 102,400
46,701	 -50,691	 0,192	 -38,911	 102,800
46,714	 -50,687	 0,195	 -38,910	 103,200
46,731	 -50,684	 0,198	 -38,907	 103,600
46,768	 -50,683	 0,200	 -38,907	 104,000
46,800	 -50,677	 0,204	 -38,903	 104,400
46,838	 -50,670	 0,208	 -38,900	 104,800
46,855	 -50,668	 0,210	 -38,895	 105,200
46,871	 -50,665	 0,214	 -38,892	 105,600
46,886	 -50,658	 0,217	 -38,894	 106,000
46,905	 -50,656	 0,221	 -38,888	 106,400
46,920	 -50,652	 0,224	 -38,885	 106,800
46,939	 -50,647	 0,228	 -38,880	 107,200
46,945	 -50,644	 0,231	 -38,876	 107,600
46,965	 -50,640	 0,234	 -38,876	 108,000
46,987	 -50,636	 0,238	 -38,870	 108,400
46,999	 -50,633	 0,241	 -38,870	 108,800
47,003	 -50,628	 0,245	 -38,863	 109,200
47,018	 -50,626	 0,248	 -38,862	 109,600
47,031	 -50,621	 0,252	 -38,861	 110,000
47,041	 -50,619	 0,256	 -38,856	 110,400
47,055	 -50,614	 0,259	 -38,852	 110,800
47,081	 -50,610	 0,263	 -38,850	 111,200
47,097	 -50,608	 0,267	 -38,844	 111,600
47,097	 -50,605	 0,270	 -38,843	 112,000
47,103	 -50,596	 0,274	 -38,840	 112,400
47,106	 -50,595	 0,277	 -38,835	 112,800
47,111	 -50,589	 0,281	 -38,832	 113,200
47,126	 -50,586	 0,285	 -38,830	 113,600
47,147	 -50,582	 0,288	 -38,830	 114,000
47,153	 -50,579	 0,292	 -38,824	 114,400
47,164	 -50,574	 0,295	 -38,822	 114,800
47,171	 -50,572	 0,299	 -38,819	 115,200
47,182	 -50,566	 0,302	 -38,815	 115,600
47,186	 -50,561	 0,306	 -38,815	 116,000
47,192	 -50,556	 0,310	 -38,809	 116,400
47,195	 -50,552	 0,313	 -38,806	 116,800
47,199	 -50,548	 0,318	 -38,799	 117,200
47,201	 -50,544	 0,321	 -38,799	 117,600
47,207	 -50,541	 0,324	 -38,796	 118,000
47,215	 -50,535	 0,328	 -38,796	 118,400
47,219	 -50,530	 0,332	 -38,792	 118,800
47,235	 -50,528	 0,336	 -38,787	 119,200
47,246	 -50,521	 0,339	 -38,782	 119,600
47,248	 -50,519	 0,343	 -38,780	 120,000
47,247	 -50,518	 0,346	 -38,781	 120,400
47,258	 -50,513	 0,350	 -38,780	 120,800
47,267	 -50,508	 0,354	 -38,775	 121,200
47,281	 -50,506	 0,358	 -38,773	 121,600
47,288	 -50,497	 0,362	 -38,769	 122,000
47,285	 -50,496	 0,365	 -38,767	 122,400
47,283	 -50,491	 0,369	 -38,763	 122,800
47,283	 -50,486	 0,373	 -38,759	 123,200
47,294	 -50,483	 0,376	 -38,755	 123,600
47,294	 -50,478	 0,379	 -38,748	 124,000
47,301	 -50,480	 0,383	 -38,751	 124,400
47,317	 -50,471	 0,386	 -38,747	 124,800
47,324	 -50,469	 0,391	 -38,744	 125,200
47,329	 -50,463	 0,394	 -38,738	 125,600
47,351	 -50,459	 0,398	 -38,734	 126,000
47,356	 -50,456	 0,402	 -38,736	 126,400
47,358	 -50,453	 0,405	 -38,731	 126,800
47,358	 -50,451	 0,410	 -38,727	 127,200
47,361	 -50,447	 0,413	 -38,723	 127,600
47,364	 -50,440	 0,416	 -38,720	 128,000
47,371	 -50,439	 0,420	 -38,720	 128,400
47,382	 -50,434	 0,424	 -38,717	 128,800
47,386	 -50,429	 0,427	 -38,711	 129,200
47,389	 -50,423	 0,431	 -38,707	 129,600
47,393	 -50,420	 0,435	 -38,704	 130,000
47,390	 -50,417	 0,439	 -38,703	 130,400
47,390	 -50,414	 0,442	 -38,700	 130,800
47,399	 -50,410	 0,447	 -38,695	 131,200
47,401	 -50,405	 0,449	 -38,694	 131,600
47,421	 -50,401	 0,453	 -38,688	 132,000
47,437	 -50,398	 0,457	 -38,689	 132,400
47,443	 -50,391	 0,461	 -38,685	 132,800
47,449	 -50,388	 0,464	 -38,680	 133,200
47,454	 -50,383	 0,468	 -38,674	 133,600
47,456	 -50,380	 0,471	 -38,669	 134,000
47,443	 -50,376	 0,475	 -38,665	 134,400
47,449	 -50,373	 0,478	 -38,668	 134,800
47,454	 -50,369	 0,483	 -38,664	 135,200
47,461	 -50,365	 0,486	 -38,660	 135,600
47,472	 -50,362	 0,489	 -38,657	 136,000
47,484	 -50,355	 0,493	 -38,650	 136,400
47,482	 -50,352	 0,497	 -38,649	 136,800
47,492	 -50,347	 0,500	 -38,648	 137,200
47,500	 -50,345	 0,503	 -38,643	 137,600
47,508	 -50,339	 0,507	 -38,636	 138,000
47,521	 -50,338	 0,510	 -38,635	 138,400
47,528	 -50,331	 0,515	 -38,637	 138,800
47,533	 -50,331	 0,518	 -38,635	 139,200
47,537	 -50,328	 0,522	 -38,631	 139,600
47,559	 -50,320	 0,526	 -38,625	 140,000
47,570	 -50,317	 0,529	 -38,619	 140,400
47,570	 -50,313	 0,533	 -38,618	 140,800
47,581	 -50,307	 0,537	 -38,618	 141,200
47,583	 -50,305	 0,541	 -38,616	 141,600
47,586	 -50,302	 0,544	 -38,607	 142,000
47,583	 -50,295	 0,548	 -38,607	 142,400
47,585	 -50,294	 0,552	 -38,604	 142,800
47,592	 -50,289	 0,555	 -38,602	 143,200
47,600	 -50,285	 0,558	 -38,599	 143,600
47,611	 -50,280	 0,563	 -38,593	 144,000
47,614	 -50,279	 0,566	 -38,590	 144,400
47,620	 -50,274	 0,570	 -38,589	 144,800
47,635	 -50,271	 0,574	 -38,590	 145,200
47,634	 -50,267	 0,577	 -38,584	 145,600
47,635	 -50,264	 0,581	 -38,576	 146,000
47,639	 -50,260	 0,585	 -38,575	 146,400
47,660	 -50,254	 0,588	 -38,574	 146,800
47,668	 -50,251	 0,592	 -38,570	 147,200
47,679	 -50,242	 0,596	 -38,565	 147,600
47,679	 -50,241	 0,600	 -38,562	 148,000
47,677	 -50,236	 0,604	 -38,560	 148,400
47,681	 -50,236	 0,607	 -38,558	 148,800
47,686	 -50,229	 0,610	 -38,554	 149,200
47,685	 -50,226	 0,614	 -38,552	 149,600
47,695	 -50,221	 0,618	 -38,548	 150,000
47,706	 -50,214	 0,622	 -38,545	 150,400
47,714	 -50,214	 0,626	 -38,539	 150,800
47,733	 -50,208	 0,629	 -38,543	 151,200
47,731	 -50,206	 0,632	 -38,539	 151,600
47,726	 -50,204	 0,637	 -38,534	 152,000
47,740	 -50,194	 0,641	 -38,529	 152,400
47,750	 -50,192	 0,644	 -38,523	 152,800
47,756	 -50,185	 0,647	 -38,525	 153,200
47,760	 -50,183	 0,652	 -38,522	 153,600
47,763	 -50,180	 0,655	 -38,517	 154,000
47,762	 -50,177	 0,659	 -38,515	 154,400
47,769	 -50,174	 0,662	 -38,510	 154,800
47,765	 -50,171	 0,666	 -38,513	 155,200
47,791	 -50,165	 0,669	 -38,506	 155,600
47,811	 -50,160	 0,673	 -38,503	 156,000
47,829	 -50,156	 0,677	 -38,498	 156,400
47,837	 -50,151	 0,681	 -38,498	 156,800
47,842	 -50,149	 0,687	 -38,495	 157,200
47,842	 -50,145	 0,694	 -38,492	 157,600
47,849	 -50,140	 0,740	 -38,489	 158,000
47,844	 -50,137	 0,744	 -38,485	 158,400
47,851	 -50,135	 0,747	 -38,481	 158,800
47,861	 -50,131	 0,751	 -38,482	 159,200
47,866	 -50,127	 0,755	 -38,477	 159,600
47,873	 -50,122	 0,759	 -38,472	 160,000
47,872	 -50,118	 0,762	 -38,467	 160,400
47,877	 -50,113	 0,766	 -38,462	 160,800
47,877	 -50,112	 0,770	 -38,465	 161,200
47,864	 -50,105	 0,773	 -38,460	 161,600
47,874	 -50,102	 0,776	 -38,455	 162,000
47,890	 -50,100	 0,780	 -38,453	 162,400
47,894	 -50,094	 0,783	 -38,450	 162,800
47,897	 -50,092	 0,786	 -38,450	 163,200
47,902	 -50,088	 0,789	 -38,447	 163,600
47,908	 -50,084	 0,793	 -38,441	 164,000
47,883	 -50,079	 0,796	 -38,438	 164,400
47,940	 -50,074	 0,799	 -38,431	 164,800
47,986	 -50,070	 0,520	 -38,433	 165,200
47,996	 -50,067	 0,157	 -38,430	 165,600
47,993	 -50,060	 -0,440	 -38,427	 166,000
47,999	 -50,056	 -0,013	 -38,424	 166,400
47,995	 -50,053	 -0,013	 -38,418	 166,800
47,988	 -50,049	 -0,013	 -38,421	 167,200
47,988	 -50,042	 -0,014	 -38,416	 167,600
47,987	 -50,040	 -0,014	 -38,412	 168,000
47,992	 -50,035	 -0,014	 -38,407	 168,400
47,995	 -50,034	 -0,014	 -38,403	 168,800
47,997	 -50,029	 -0,014	 -38,400	 169,200
48,001	 -50,026	 -0,014	 -38,400	 169,600
48,001	 -50,020	 -0,014	 -38,399	 170,000
48,003	 -50,019	 -0,014	 -38,393	 170,400
48,003	 -50,012	 -0,014	 -38,390	 170,800
48,012	 -50,010	 -0,013	 -38,385	 171,200
48,023	 -50,004	 -0,014	 -38,385	 171,600
48,040	 -50,003	 -0,014	 -38,381	 172,000
48,048	 -50,002	 -0,014	 -38,377	 172,400
48,054	 -49,996	 -0,014	 -38,373	 172,800
48,061	 -49,991	 -0,014	 -38,372	 173,200
48,083	 -49,987	 -0,020	 -38,373	 173,600
48,080	 -49,983	 -0,024	 -38,368	 174,000
48,091	 -49,978	 -0,024	 -38,360	 174,400
48,097	 -49,977	 -0,025	 -38,357	 174,800
48,097	 -49,971	 -0,026	 -38,354	 175,200
48,097	 -49,966	 -0,026	 -38,358	 175,600
48,093	 -49,964	 -0,026	 -38,352	 176,000
48,097	 -49,958	 -0,026	 -38,348	 176,400
48,109	 -49,954	 -0,025	 -38,341	 176,800
48,115	 -49,952	 -0,026	 -38,338	 177,200
48,120	 -49,951	 -0,025	 -38,339	 177,600
48,132	 -49,944	 -0,025	 -38,335	 178,000
48,145	 -49,943	 -0,025	 -38,333	 178,400
48,151	 -49,938	 -0,025	 -38,327	 178,800
48,164	 -49,929	 -0,025	 -38,324	 179,200
48,167	 -49,928	 -0,025	 -38,325	 179,600
48,168	 -49,924	 -0,025	 -38,322	 180,000
48,177	 -49,919	 -0,026	 -38,313	 180,400
48,186	 -49,919	 -0,026	 -38,311	 180,800
48,189	 -49,912	 -0,025	 -38,309	 181,200
48,193	 -49,907	 -0,025	 -38,311	 181,600
48,193	 -49,905	 -0,025	 -38,306	 182,000
48,199	 -49,899	 -0,025	 -38,302	 182,400
48,212	 -49,896	 -0,025	 -38,296	 182,800
48,216	 -49,893	 -0,026	 -38,294	 183,200
48,220	 -49,891	 -0,025	 -38,296	 183,600
48,230	 -49,885	 -0,025	 -38,291	 184,000
48,240	 -49,880	 -0,025	 -38,286	 184,400
48,251	 -49,875	 -0,025	 -38,283	 184,800
48,259	 -49,872	 -0,025	 -38,277	 185,200
48,264	 -49,870	 -0,025	 -38,276	 185,600
48,267	 -49,863	 -0,025	 -38,275	 186,000
48,264	 -49,861	 -0,026	 -38,272	 186,400
48,276	 -49,854	 -0,025	 -38,267	 186,800
48,278	 -49,851	 -0,025	 -38,267	 187,200
48,281	 -49,848	 -0,025	 -38,258	 187,600
48,279	 -49,842	 -0,025	 -38,259	 188,000
48,275	 -49,838	 -0,025	 -38,256	 188,400
48,287	 -49,835	 -0,025	 -38,252	 188,800
48,289	 -49,830	 -0,025	 -38,248	 189,200
48,298	 -49,829	 -0,025	 -38,247	 189,600
48,305	 -49,825	 -0,025	 -38,247	 190,000
48,310	 -49,819	 -0,025	 -38,238	 190,400
48,319	 -49,817	 -0,025	 -38,239	 190,800
48,333	 -49,812	 -0,025	 -38,234	 191,200
48,339	 -49,810	 -0,025	 -38,232	 191,600
48,339	 -49,806	 -0,025	 -38,230	 192,000
48,351	 -49,800	 -0,025	 -38,225	 192,400
48,355	 -49,796	 -0,025	 -38,223	 192,800
48,355	 -49,790	 -0,025	 -38,219	 193,200
48,359	 -49,789	 -0,025	 -38,214	 193,600
48,361	 -49,785	 -0,025	 -38,215	 194,000
48,369	 -49,777	 -0,025	 -38,211	 194,400
48,375	 -49,775	 -0,025	 -38,208	 194,800
48,377	 -49,772	 -0,025	 -38,203	 195,200
48,380	 -49,769	 -0,025	 -38,199	 195,600
48,376	 -49,766	 -0,025	 -38,199	 196,000
48,392	 -49,760	 -0,025	 -38,194	 196,400
48,407	 -49,753	 -0,025	 -38,191	 196,800
48,406	 -49,753	 -0,025	 -38,187	 197,200
48,411	 -49,752	 -0,025	 -38,182	 197,600
48,453	 -49,745	 -0,025	 -38,181	 198,000
48,468	 -49,739	 -0,025	 -38,179	 198,400
48,479	 -49,736	 -0,025	 -38,177	 198,800
48,473	 -49,730	 -0,025	 -38,172	 199,200
48,471	 -49,727	 -0,025	 -38,165	 199,600
48,468	 -49,724	 -0,025	 -38,167	 200,000
48,465	 -49,718	 -0,025	 -38,162	 200,400
48,459	 -49,716	 -0,025	 -38,160	 200,800
48,461	 -49,709	 -0,025	 -38,155	 201,200
48,457	 -49,708	 -0,025	 -38,153	 201,600
48,456	 -49,704	 -0,025	 -38,146	 202,000
48,459	 -49,699	 -0,025	 -38,148	 202,400
48,469	 -49,694	 -0,026	 -38,146	 202,800
48,470	 -49,693	 -0,025	 -38,140	 203,200
48,473	 -49,687	 -0,025	 -38,137	 203,600
48,487	 -49,683	 -0,025	 -38,133	 204,000
48,487	 -49,677	 -0,025	 -38,133	 204,400
48,490	 -49,673	 -0,025	 -38,128	 204,800
48,499	 -49,671	 -0,025	 -38,125	 205,200
48,509	 -49,665	 -0,025	 -38,122	 205,600
48,520	 -49,664	 -0,025	 -38,118	 206,000
48,523	 -49,658	 -0,025	 -38,116	 206,400
48,530	 -49,654	 -0,025	 -38,115	 206,800
48,538	 -49,650	 -0,025	 -38,111	 207,200
48,561	 -49,646	 -0,025	 -38,107	 207,600
48,578	 -49,642	 -0,025	 -38,100	 208,000
48,577	 -49,636	 -0,025	 -38,103	 208,400
48,578	 -49,631	 -0,025	 -38,100	 208,800
48,580	 -49,630	 -0,025	 -38,095	 209,200
48,587	 -49,627	 -0,025	 -38,091	 209,600
48,584	 -49,623	 -0,025	 -38,089	 210,000
48,582	 -49,615	 -0,025	 -38,089	 210,400
48,591	 -49,616	 -0,025	 -38,085	 210,800
48,595	 -49,612	 -0,025	 -38,082	 211,200
48,593	 -49,608	 -0,025	 -38,076	 211,600
48,598	 -49,602	 -0,025	 -38,072	 212,000
48,604	 -49,597	 -0,025	 -38,072	 212,400
48,603	 -49,597	 -0,025	 -38,071	 212,800
48,611	 -49,593	 -0,025	 -38,066	 213,200
48,621	 -49,587	 -0,025	 -38,061	 213,600
48,632	 -49,585	 -0,025	 -38,060	 214,000
48,636	 -49,581	 -0,025	 -38,059	 214,400
48,635	 -49,577	 -0,025	 -38,054	 214,800
48,644	 -49,572	 -0,025	 -38,050	 215,200
48,639	 -49,570	 -0,025	 -38,048	 215,600
48,641	 -49,563	 -0,025	 -38,041	 216,000
48,651	 -49,561	 -0,025	 -38,042	 216,400
48,662	 -49,556	 -0,025	 -38,036	 216,800
48,667	 -49,554	 -0,025	 -38,034	 217,200
48,671	 -49,549	 -0,025	 -38,029	 217,600
48,679	 -49,547	 -0,025	 -38,027	 218,000
48,674	 -49,542	 -0,025	 -38,024	 218,400
48,680	 -49,539	 -0,025	 -38,024	 218,800
48,690	 -49,533	 -0,025	 -38,019	 219,200
48,690	 -49,526	 -0,025	 -38,015	 219,600
48,691	 -49,526	 -0,025	 -38,011	 220,000
48,694	 -49,520	 -0,025	 -38,006	 220,400
48,697	 -49,518	 -0,025	 -38,007	 220,800
48,709	 -49,512	 -0,025	 -38,005	 221,200
48,720	 -49,508	 -0,025	 -38,001	 221,600
48,739	 -49,503	 -0,024	 -37,996	 222,000
48,747	 -49,500	 -0,025	 -37,992	 222,400
48,749	 -49,497	 -0,025	 -37,993	 222,800
48,757	 -49,493	 -0,025	 -37,989	 223,200
48,758	 -49,488	 -0,024	 -37,986	 223,600
48,767	 -49,484	 -0,025	 -37,982	 224,000
48,770	 -49,477	 -0,025	 -37,978	 224,400
48,768	 -49,475	 -0,025	 -37,977	 224,800
48,768	 -49,469	 -0,025	 -37,973	 225,200
48,766	 -49,467	 -0,025	 -37,969	 225,600
48,770	 -49,462	 -0,025	 -37,965	 226,000
48,780	 -49,460	 -0,025	 -37,962	 226,400
48,785	 -49,457	 -0,025	 -37,965	 226,800
48,786	 -49,453	 -0,025	 -37,960	 227,200
48,786	 -49,448	 -0,025	 -37,955	 227,600
48,793	 -49,444	 -0,025	 -37,953	 228,000
48,799	 -49,439	 -0,025	 -37,950	 228,400
48,808	 -49,435	 -0,025	 -37,948	 228,800
48,808	 -49,430	 -0,025	 -37,944	 229,200
48,821	 -49,426	 -0,025	 -37,939	 229,600
48,823	 -49,420	 -0,025	 -37,938	 230,000
48,843	 -49,419	 -0,025	 -37,933	 230,400
48,844	 -49,416	 -0,025	 -37,934	 230,800
48,839	 -49,409	 -0,025	 -37,931	 231,200
48,842	 -49,404	 -0,025	 -37,923	 231,600
48,842	 -49,403	 -0,025	 -37,920	 232,000
48,842	 -49,399	 -0,025	 -37,916	 232,400
48,844	 -49,394	 -0,025	 -37,918	 232,800
48,843	 -49,391	 -0,025	 -37,912	 233,200
48,848	 -49,389	 -0,025	 -37,909	 233,600
48,858	 -49,384	 -0,025	 -37,906	 234,000
48,867	 -49,378	 -0,025	 -37,901	 234,400
48,871	 -49,375	 -0,025	 -37,901	 234,800
48,873	 -49,370	 -0,025	 -37,897	 235,200
48,873	 -49,370	 -0,025	 -37,894	 235,600
48,880	 -49,364	 -0,025	 -37,892	 236,000
48,891	 -49,359	 -0,025	 -37,886	 236,400
48,896	 -49,356	 -0,025	 -37,879	 236,800
48,898	 -49,354	 -0,025	 -37,885	 237,200
48,906	 -49,349	 -0,025	 -37,879	 237,600
48,907	 -49,346	 -0,025	 -37,876	 238,000
48,916	 -49,342	 -0,025	 -37,873	 238,400
48,924	 -49,335	 -0,025	 -37,866	 238,800
48,933	 -49,333	 -0,025	 -37,866	 239,200
48,931	 -49,328	 -0,025	 -37,862	 239,600
48,933	 -49,324	 -0,025	 -37,859	 240,000
48,933	 -49,317	 -0,025	 -37,855	 240,400
48,928	 -49,321	 -0,024	 -37,851	 240,800
48,933	 -49,312	 -0,025	 -37,851	 241,200
48,933	 -49,307	 -0,025	 -37,849	 241,600
48,935	 -49,303	 -0,024	 -37,845	 242,000
48,948	 -49,299	 -0,025	 -37,840	 242,400
48,959	 -49,297	 -0,025	 -37,837	 242,800
48,966	 -49,292	 -0,025	 -37,834	 243,200
48,968	 -49,285	 -0,025	 -37,830	 243,600
48,970	 -49,285	 -0,025	 -37,828	 244,000
48,977	 -49,282	 -0,025	 -37,828	 244,400
48,980	 -49,278	 -0,025	 -37,820	 244,800
48,981	 -49,271	 -0,025	 -37,822	 245,200
48,992	 -49,266	 -0,025	 -37,818	 245,600
49,016	 -49,264	 -0,025	 -37,814	 246,000
49,023	 -49,261	 -0,025	 -37,812	 246,400
49,018	 -49,254	 -0,025	 -37,806	 246,800
49,012	 -49,250	 -0,025	 -37,806	 247,200
49,020	 -49,247	 -0,025	 -37,804	 247,600
49,020	 -49,243	 -0,025	 -37,798	 248,000
49,023	 -49,237	 -0,025	 -37,796	 248,400
49,029	 -49,234	 -0,025	 -37,795	 248,800
49,025	 -49,229	 -0,025	 -37,795	 249,200
49,025	 -49,226	 -0,025	 -37,788	 249,600
49,025	 -49,223	 -0,025	 -37,785	 250,000
49,024	 -49,216	 -0,025	 -37,781	 250,400
49,031	 -49,215	 -0,025	 -37,778	 250,800
49,041	 -49,209	 -0,025	 -37,777	 251,200
49,038	 -49,206	 -0,024	 -37,772	 251,600
49,036	 -49,202	 -0,024	 -37,769	 252,000
49,045	 -49,197	 -0,024	 -37,765	 252,400
49,055	 -49,195	 -0,025	 -37,762	 252,800
49,055	 -49,192	 -0,025	 -37,759	 253,200
49,063	 -49,188	 -0,025	 -37,759	 253,600
49,072	 -49,182	 -0,025	 -37,753	 254,000
49,077	 -49,180	 -0,025	 -37,749	 254,400
49,082	 -49,173	 -0,025	 -37,746	 254,800
49,080	 -49,173	 -0,025	 -37,744	 255,200
49,080	 -49,166	 -0,025	 -37,742	 255,600
49,098	 -49,162	 -0,024	 -37,740	 256,000
49,099	 -49,159	 -0,025	 -37,736	 256,400
49,100	 -49,157	 -0,025	 -37,732	 256,800
49,099	 -49,148	 -0,025	 -37,728	 257,200
49,108	 -49,146	 -0,025	 -37,727	 257,600
49,118	 -49,145	 -0,025	 -37,721	 258,000
49,121	 -49,140	 -0,025	 -37,717	 258,400
49,119	 -49,136	 -0,025	 -37,716	 258,800
49,126	 -49,131	 -0,025	 -37,710	 259,200
49,130	 -49,128	 -0,025	 -37,711	 259,600
49,132	 -49,124	 -0,025	 -37,708	 260,000
49,139	 -49,120	 -0,025	 -37,702	 260,400
49,135	 -49,117	 -0,025	 -37,696	 260,800
49,138	 -49,112	 -0,025	 -37,693	 261,200
49,146	 -49,109	 -0,025	 -37,691	 261,600
49,153	 -49,104	 -0,025	 -37,688	 262,000
49,163	 -49,102	 -0,025	 -37,684	 262,400
49,173	 -49,095	 -0,024	 -37,681	 262,800
49,179	 -49,095	 -0,025	 -37,676	 263,200
49,180	 -49,088	 -0,025	 -37,675	 263,600
49,187	 -49,083	 -0,025	 -37,674	 264,000
49,179	 -49,081	 -0,025	 -37,668	 264,400
49,189	 -49,078	 -0,025	 -37,665	 264,800
49,191	 -49,072	 -0,025	 -37,662	 265,200
49,192	 -49,073	 -0,025	 -37,661	 265,600
49,195	 -49,064	 -0,024	 -37,658	 266,000
49,198	 -49,060	 -0,025	 -37,655	 266,400
49,196	 -49,057	 -0,025	 -37,652	 266,800
49,203	 -49,051	 -0,025	 -37,644	 267,200
49,206	 -49,048	 -0,025	 -37,647	 267,600
49,207	 -49,044	 -0,025	 -37,643	 268,000
49,205	 -49,037	 -0,025	 -37,638	 268,400
49,204	 -49,037	 -0,024	 -37,635	 268,800
49,211	 -49,031	 -0,025	 -37,630	 269,200
49,218	 -49,026	 -0,025	 -37,630	 269,600
49,220	 -49,027	 -0,025	 -37,627	 270,000
49,228	 -49,020	 -0,025	 -37,624	 270,400
49,240	 -49,015	 -0,025	 -37,621	 270,800
49,245	 -49,011	 -0,025	 -37,619	 271,200
49,240	 -49,008	 -0,025	 -37,612	 271,600
49,244	 -49,003	 -0,025	 -37,615	 272,000
49,248	 -49,000	 -0,025	 -37,610	 272,400
49,253	 -48,995	 -0,025	 -37,605	 272,800
49,261	 -48,992	 -0,025	 -37,601	 273,200
49,264	 -48,988	 -0,025	 -37,596	 273,600
49,266	 -48,984	 -0,025	 -37,596	 274,000
49,272	 -48,979	 -0,025	 -37,592	 274,400
49,270	 -48,975	 -0,025	 -37,590	 274,800
49,280	 -48,972	 -0,025	 -37,586	 275,200
49,285	 -48,970	 -0,025	 -37,580	 275,600
49,279	 -48,966	 -0,025	 -37,580	 276,000
49,289	 -48,957	 -0,025	 -37,578	 276,400
49,287	 -48,956	 -0,025	 -37,572	 276,800
49,301	 -48,953	 -0,025	 -37,572	 277,200
49,313	 -48,950	 -0,025	 -37,566	 277,600
49,323	 -48,944	 -0,025	 -37,568	 278,000
49,322	 -48,941	 -0,025	 -37,564	 278,400
49,321	 -48,935	 -0,025	 -37,561	 278,800
49,322	 -48,932	 -0,025	 -37,555	 279,200
49,323	 -48,927	 -0,025	 -37,552	 279,600
49,321	 -48,924	 -0,025	 -37,552	 280,000
49,319	 -48,920	 -0,025	 -37,546	 280,400
49,323	 -48,917	 -0,025	 -37,544	 280,800
49,333	 -48,912	 -0,025	 -37,539	 281,200
49,334	 -48,911	 -0,025	 -37,537	 281,600
49,344	 -48,902	 -0,025	 -37,533	 282,000
49,349	 -48,900	 -0,024	 -37,531	 282,400
49,345	 -48,895	 -0,025	 -37,531	 282,800
49,347	 -48,891	 -0,025	 -37,524	 283,200
49,349	 -48,887	 -0,025	 -37,522	 283,600
49,349	 -48,884	 -0,025	 -37,521	 284,000
49,347	 -48,878	 -0,025	 -37,518	 284,400
49,352	 -48,877	 -0,025	 -37,515	 284,800
49,360	 -48,874	 -0,025	 -37,509	 285,200
49,362	 -48,867	 -0,025	 -37,506	 285,600
49,362	 -48,867	 -0,025	 -37,506	 286,000
49,361	 -48,860	 -0,025	 -37,503	 286,400
49,356	 -48,857	 -0,025	 -37,500	 286,800
49,365	 -48,851	 -0,025	 -37,494	 287,200
49,366	 -48,847	 -0,025	 -37,491	 287,600
49,380	 -48,840	 -0,025	 -37,487	 288,000
49,394	 -48,838	 -0,025	 -37,486	 288,400
49,393	 -48,837	 -0,025	 -37,487	 288,800
49,399	 -48,832	 -0,024	 -37,479	 289,200
49,396	 -48,827	 -0,025	 -37,476	 289,600
49,399	 -48,824	 -0,025	 -37,472	 290,000
49,404	 -48,820	 -0,024	 -37,469	 290,400
49,403	 -48,814	 -0,025	 -37,470	 290,800
49,404	 -48,812	 -0,025	 -37,464	 291,200
49,407	 -48,808	 -0,025	 -37,461	 291,600
49,400	 -48,803	 -0,025	 -37,458	 292,000
49,400	 -48,803	 -0,025	 -37,458	 292,400
49,417	 -48,798	 -0,025	 -37,454	 292,800
49,432	 -48,792	 -0,025	 -37,450	 293,200
49,438	 -48,788	 -0,025	 -37,445	 293,600
49,437	 -48,786	 -0,025	 -37,441	 294,000
49,447	 -48,779	 -0,025	 -37,443	 294,400
49,454	 -48,775	 -0,025	 -37,437	 294,800
49,454	 -48,773	 -0,025	 -37,434	 295,200
49,462	 -48,766	 -0,025	 -37,432	 295,600
49,477	 -48,763	 -0,025	 -37,427	 296,000
49,484	 -48,761	 -0,025	 -37,426	 296,400
49,489	 -48,758	 -0,025	 -37,421	 296,800
49,496	 -48,751	 -0,025	 -37,418	 297,200
49,489	 -48,747	 -0,025	 -37,414	 297,600
49,483	 -48,744	 -0,025	 -37,410	 298,000
49,478	 -48,738	 -0,025	 -37,412	 298,400
49,474	 -48,735	 -0,025	 -37,408	 298,800
49,478	 -48,730	 -0,025	 -37,399	 299,200
49,499	 -48,723	 -0,025	 -37,398	 299,600
49,494	 -48,722	 -0,025	 -37,393	 300,000
49,492	 -48,718	 -0,025	 -37,393	 300,400
49,487	 -48,712	 -0,025	 -37,389	 300,800
49,474	 -48,708	 -0,025	 -37,386	 301,200
49,462	 -48,707	 -0,025	 -37,382	 301,600
49,473	 -48,703	 -0,025	 -37,375	 302,000
49,487	 -48,700	 -0,026	 -37,381	 302,400
49,486	 -48,693	 -0,025	 -37,375	 302,800
49,480	 -48,693	 -0,025	 -37,374	 303,200
49,481	 -48,691	 -0,025	 -37,367	 303,600
49,478	 -48,682	 -0,025	 -37,363	 304,000
49,474	 -48,680	 -0,025	 -37,362	 304,400
49,478	 -48,678	 -0,025	 -37,360	 304,800
49,483	 -48,671	 -0,025	 -37,355	 305,200
49,492	 -48,669	 -0,025	 -37,351	 305,600
49,497	 -48,663	 -0,025	 -37,347	 306,000
49,509	 -48,660	 -0,025	 -37,344	 306,400
49,514	 -48,657	 -0,025	 -37,344	 306,800
49,531	 -48,650	 -0,025	 -37,340	 307,200
49,542	 -48,649	 -0,025	 -37,336	 307,600
49,551	 -48,643	 -0,025	 -37,333	 308,000
49,548	 -48,640	 -0,025	 -37,330	 308,400
49,546	 -48,636	 -0,025	 -37,331	 308,800
49,543	 -48,627	 -0,025	 -37,328	 309,200
49,543	 -48,625	 -0,025	 -37,324	 309,600
49,559	 -48,623	 -0,025	 -37,323	 310,000
49,573	 -48,620	 -0,025	 -37,317	 310,400
49,581	 -48,617	 -0,026	 -37,315	 310,800
49,592	 -48,610	 -0,025	 -37,315	 311,200
49,586	 -48,606	 -0,025	 -37,310	 311,600
49,584	 -48,604	 -0,025	 -37,305	 312,000
49,587	 -48,600	 -0,025	 -37,303	 312,400
49,592	 -48,596	 -0,025	 -37,303	 312,800
49,597	 -48,591	 -0,025	 -37,299	 313,200
49,594	 -48,588	 -0,025	 -37,296	 313,600
49,588	 -48,584	 -0,025	 -37,291	 314,000
49,578	 -48,578	 -0,025	 -37,287	 314,400
49,570	 -48,576	 -0,025	 -37,286	 314,800
49,575	 -48,569	 -0,025	 -37,281	 315,200
49,583	 -48,566	 -0,025	 -37,279	 315,600
49,588	 -48,561	 -0,025	 -37,272	 316,000
49,587	 -48,560	 -0,025	 -37,270	 316,400
49,581	 -48,557	 -0,025	 -37,272	 316,800
49,581	 -48,551	 -0,025	 -37,268	 317,200
49,599	 -48,547	 -0,025	 -37,263	 317,600
49,611	 -48,545	 -0,025	 -37,260	 318,000
49,627	 -48,541	 -0,025	 -37,258	 318,400
49,629	 -48,538	 -0,025	 -37,257	 318,800
49,634	 -48,534	 -0,025	 -37,249	 319,200
49,638	 -48,530	 -0,025	 -37,245	 319,600
49,635	 -48,527	 -0,025	 -37,243	 320,000
49,631	 -48,521	 -0,025	 -37,239	 320,400
49,633	 -48,518	 -0,025	 -37,237	 320,800
49,638	 -48,514	 -0,025	 -37,236	 321,200
49,643	 -48,509	 -0,025	 -37,231	 321,600
49,638	 -48,504	 -0,025	 -37,223	 322,000
49,627	 -48,501	 -0,025	 -37,225	 322,400
49,619	 -48,499	 -0,025	 -37,222	 322,800
49,611	 -48,494	 -0,025	 -37,222	 323,200
49,604	 -48,491	 -0,025	 -37,217	 323,600
49,633	 -48,487	 -0,025	 -37,212	 324,000
49,662	 -48,484	 -0,025	 -37,211	 324,400
49,684	 -48,481	 -0,025	 -37,205	 324,800
49,698	 -48,474	 -0,025	 -37,204	 325,200
49,704	 -48,471	 -0,025	 -37,200	 325,600
49,701	 -48,466	 -0,025	 -37,196	 326,000
49,697	 -48,461	 -0,025	 -37,193	 326,400
49,693	 -48,459	 -0,025	 -37,191	 326,800
49,689	 -48,454	 -0,025	 -37,191	 327,200
49,680	 -48,448	 -0,025	 -37,186	 327,600
49,678	 -48,445	 -0,025	 -37,183	 328,000
49,677	 -48,441	 -0,025	 -37,180	 328,400
49,669	 -48,436	 -0,025	 -37,174	 328,800
49,671	 -48,433	 -0,025	 -37,174	 329,200
49,700	 -48,429	 -0,025	 -37,169	 329,600
49,717	 -48,421	 -0,025	 -37,169	 330,000
49,721	 -48,416	 -0,025	 -37,164	 330,400
49,708	 -48,413	 -0,025	 -37,157	 330,800
49,699	 -48,411	 -0,025	 -37,160	 331,200
49,690	 -48,406	 -0,025	 -37,156	 331,600
49,688	 -48,403	 -0,025	 -37,152	 332,000
49,687	 -48,401	 -0,025	 -37,148	 332,400
49,680	 -48,395	 -0,025	 -37,144	 332,800
49,682	 -48,393	 -0,025	 -37,145	 333,200
49,688	 -48,390	 -0,025	 -37,141	 333,600
49,699	 -48,385	 -0,025	 -37,138	 334,000
49,717	 -48,378	 -0,025	 -37,134	 334,400
49,723	 -48,377	 -0,025	 -37,130	 334,800
49,728	 -48,371	 -0,025	 -37,132	 335,200
49,728	 -48,366	 -0,025	 -37,126	 335,600
49,732	 -48,362	 -0,025	 -37,122	 336,000
49,735	 -48,358	 -0,025	 -37,116	 336,400
49,739	 -48,355	 -0,025	 -37,113	 336,800
49,735	 -48,350	 -0,025	 -37,113	 337,200
49,740	 -48,347	 -0,025	 -37,111	 337,600
49,739	 -48,343	 -0,025	 -37,107	 338,000
49,730	 -48,340	 -0,025	 -37,103	 338,400
49,739	 -48,336	 -0,025	 -37,099	 338,800
49,741	 -48,333	 -0,025	 -37,093	 339,200
49,744	 -48,328	 -0,025	 -37,095	 339,600
49,746	 -48,325	 -0,025	 -37,092	 340,000
49,761	 -48,320	 -0,025	 -37,087	 340,400
49,781	 -48,314	 -0,025	 -37,083	 340,800
49,789	 -48,312	 -0,025	 -37,084	 341,200
49,795	 -48,306	 -0,025	 -37,079	 341,600
49,789	 -48,304	 -0,025	 -37,078	 342,000
49,781	 -48,300	 -0,025	 -37,075	 342,400
49,779	 -48,296	 -0,025	 -37,064	 342,800
49,772	 -48,294	 -0,025	 -37,067	 343,200
49,778	 -48,291	 -0,025	 -37,067	 343,600
49,782	 -48,284	 -0,025	 -37,064	 344,000
49,781	 -48,281	 -0,025	 -37,059	 344,400
49,783	 -48,277	 -0,025	 -37,054	 344,800
49,778	 -48,273	 -0,025	 -37,047	 345,200
49,779	 -48,269	 -0,025	 -37,047	 345,600
49,778	 -48,262	 -0,025	 -37,046	 346,000
49,799	 -48,257	 -0,025	 -37,042	 346,400
49,807	 -48,256	 -0,025	 -37,037	 346,800
49,801	 -48,251	 -0,025	 -37,032	 347,200
49,797	 -48,251	 -0,025	 -37,033	 347,600
49,796	 -48,244	 -0,025	 -37,030	 348,000
49,788	 -48,240	 -0,025	 -37,027	 348,400
49,785	 -48,237	 -0,025	 -37,024	 348,800
49,790	 -48,233	 -0,025	 -37,018	 349,200
49,790	 -48,232	 -0,025	 -37,020	 349,600
49,794	 -48,226	 -0,025	 -37,015	 350,000
49,800	 -48,221	 -0,025	 -37,013	 350,400
49,814	 -48,217	 -0,025	 -37,005	 350,800
49,819	 -48,211	 -0,025	 -37,004	 351,200
49,825	 -48,207	 -0,025	 -37,004	 351,600
49,825	 -48,204	 -0,025	 -37,000	 352,000
49,834	 -48,200	 -0,025	 -36,996	 352,400
49,842	 -48,197	 -0,025	 -36,993	 352,800
49,862	 -48,191	 -0,025	 -36,981	 353,200
49,874	 -48,189	 -0,025	 -36,987	 353,600
49,880	 -48,182	 -0,025	 -36,981	 354,000
49,875	 -48,177	 -0,025	 -36,980	 354,400
49,866	 -48,173	 -0,025	 -36,976	 354,800
49,863	 -48,167	 -0,025	 -36,972	 355,200
49,862	 -48,166	 -0,026	 -36,971	 355,600
49,855	 -48,161	 -0,025	 -36,970	 356,000
49,833	 -48,158	 -0,025	 -36,967	 356,400
49,818	 -48,152	 -0,026	 -36,965	 356,800
49,819	 -48,148	 -0,025	 -36,960	 357,200
49,826	 -48,145	 -0,025	 -36,955	 357,600
49,837	 -48,143	 -0,025	 -36,955	 358,000
49,832	 -48,139	 -0,025	 -36,951	 358,400
49,818	 -48,136	 -0,025	 -36,949	 358,800
49,821	 -48,135	 -0,025	 -36,943	 359,200
49,837	 -48,128	 -0,025	 -36,941	 359,600
49,865	 -48,124	 -0,025	 -36,937	 360,000
49,897	 -48,119	 -0,025	 -36,936	 360,400
49,908	 -48,119	 -0,025	 -36,933	 360,800
49,909	 -48,110	 -0,025	 -36,928	 361,200
49,904	 -48,107	 -0,025	 -36,925	 361,600
49,897	 -48,103	 -0,025	 -36,928	 362,000
49,893	 -48,101	 -0,025	 -36,918	 362,400
49,895	 -48,094	 -0,025	 -36,916	 362,800
49,895	 -48,089	 -0,025	 -36,913	 363,200
49,889	 -48,087	 -0,025	 -36,909	 363,600
49,879	 -48,082	 -0,025	 -36,910	 364,000
49,871	 -48,079	 -0,025	 -36,906	 364,400
49,865	 -48,076	 -0,025	 -36,902	 364,800
49,863	 -48,070	 -0,025	 -36,898	 365,200
49,882	 -48,070	 -0,025	 -36,893	 365,600
49,890	 -48,067	 -0,025	 -36,893	 366,000
49,901	 -48,063	 -0,025	 -36,890	 366,400
49,916	 -48,059	 -0,025	 -36,888	 366,800
49,928	 -48,052	 -0,025	 -36,883	 367,200
49,935	 -48,049	 -0,025	 -36,879	 367,600
49,923	 -48,043	 -0,025	 -36,880	 368,000
49,914	 -48,043	 -0,025	 -36,876	 368,400
49,910	 -48,039	 -0,025	 -36,871	 368,800
49,919	 -48,035	 -0,025	 -36,869	 369,200
49,921	 -48,031	 -0,025	 -36,863	 369,600
49,927	 -48,026	 -0,024	 -36,863	 370,000
49,940	 -48,022	 -0,025	 -36,858	 370,400
49,944	 -48,017	 -0,025	 -36,856	 370,800
49,939	 -48,014	 -0,025	 -36,849	 371,200
49,933	 -48,008	 -0,025	 -36,845	 371,600
49,927	 -48,003	 -0,026	 -36,844	 372,000
49,923	 -47,998	 -0,025	 -36,843	 372,400
49,923	 -47,999	 -0,025	 -36,840	 372,800
49,919	 -47,992	 -0,025	 -36,834	 373,200
49,906	 -47,992	 -0,025	 -36,832	 373,600
49,904	 -47,984	 -0,025	 -36,829	 374,000
49,917	 -47,984	 -0,025	 -36,832	 374,400
49,937	 -47,978	 -0,025	 -36,828	 374,800
49,950	 -47,974	 -0,025	 -36,822	 375,200
49,943	 -47,968	 -0,025	 -36,818	 375,600
49,949	 -47,966	 -0,025	 -36,816	 376,000
49,973	 -47,961	 -0,025	 -36,816	 376,400
49,978	 -47,961	 -0,025	 -36,813	 376,800
49,993	 -47,951	 -0,025	 -36,807	 377,200
49,992	 -47,947	 -0,025	 -36,802	 377,600
49,992	 -47,942	 -0,025	 -36,797	 378,000
49,706	 -47,947	 -0,025	 -36,840	 378,300