File: examples/data_example.txt
WORKSHOP 3 EXPORTED DATA: [C:\wyniki\2012_03_26\Kopia 26_03.W01 - 1]
*************************************************************************************************
Source of data: ScriptPl
WS3 File Version: 1,05
Number of bytes in subfile: 89187
Total number of data points: 4434
Test date: 26-03-2012
Test time: 15:38:44
Player Step: 1
Step Capture No: 1
Actuator: 1
*************************************************************************************************
Actuator: 1  Channel:0	 Actuator: 1  Channel:1	 Actuator: 1  Channel:2	 Actuator: 1  Channel:3	 Actuator: 1  Channel:4
Load (kN)	 Stroke (mm)	 Extension (mm)	 Command (%)	 Time (s)
-0,006	 -62,865	 -0,113	 -48,310	 0,000
-0,006	 -62,835	 -0,112	 -48,283	 0,400
-0,006	 -62,801	 -0,113	 -48,254	 0,800
-0,005	 -62,755	 -0,112	 -48,220	 1,200
-0,005	 -62,711	 -0,112	 -48,189	 1,600
-0,005	 -62,676	 -0,113	 -48,162	 2,000
-0,005	 -62,641	 -0,113	 -48,129	 2,400
-0,005	 -62,598	 -0,112	 -48,099	 2,800
-0,005	 -62,562	 -0,112	 -48,066	 3,200
-0,006	 -62,521	 -0,113	 -48,039	 3,600
-0,005	 -62,476	 -0,112	 -48,006	 4,000
-0,005	 -62,437	 -0,112	 -47,974	 4,400
-0,006	 -62,400	 -0,112	 -47,942	 4,800
-0,005	 -62,358	 -0,113	 -47,912	 5,200
-0,005	 -62,317	 -0,112	 -47,884	 5,600
-0,005	 -62,278	 -0,112	 -47,851	 6,000
-0,005	 -62,239	 -0,112	 -47,821	 6,400
-0,006	 -62,200	 -0,113	 -47,792	 6,800
-0,006	 -62,162	 -0,112	 -47,761	 7,200
-0,006	 -62,118	 -0,112	 -47,728	 7,600
-0,005	 -62,078	 -0,112	 -47,700	 8,000
-0,006	 -62,039	 -0,113	 -47,670	 8,400
-0,006	 -62,000	 -0,112	 -47,636	 8,800
-0,006	 -61,960	 -0,113	 -47,609	 9,200
-0,006	 -61,921	 -0,112	 -47,579	 9,600
-0,006	 -61,881	 -0,112	 -47,547	 10,000
-0,006	 -61,839	 -0,113	 -47,518	 10,400
-0,006	 -61,800	 -0,113	 -47,481	 10,800
-0,006	 -61,760	 -0,112	 -47,453	 11,200
-0,006	 -61,720	 -0,113	 -47,418	 11,600
-0,006	 -61,683	 -0,112	 -47,386	 12,000
-0,006	 -61,641	 -0,113	 -47,359	 12,400
-0,005	 -61,599	 -0,112	 -47,328	 12,800
-0,006	 -61,562	 -0,112	 -47,294	 13,200
-0,006	 -61,521	 -0,113	 -47,265	 13,600
-0,005	 -61,479	 -0,112	 -47,231	 14,000
-0,006	 -61,444	 -0,112	 -47,201	 14,400
-0,005	 -61,402	 -0,112	 -47,172	 14,800
-0,006	 -61,359	 -0,112	 -47,142	 15,200
-0,006	 -61,323	 -0,113	 -47,113	 15,600
-0,006	 -61,282	 -0,112	 -47,085	 16,000
-0,006	 -61,240	 -0,113	 -47,052	 16,400
-0,005	 -61,201	 -0,113	 -47,024	 16,800
-0,006	 -61,161	 -0,112	 -46,990	 17,200
-0,005	 -61,122	 -0,113	 -46,958	 17,600
-0,005	 -61,081	 -0,112	 -46,928	 18,000
-0,006	 -61,040	 -0,112	 -46,900	 18,400
-0,005	 -61,001	 -0,112	 -46,870	 18,800
-0,005	 -60,963	 -0,113	 -46,839	 19,200
-0,006	 -60,923	 -0,113	 -46,807	 19,600
-0,005	 -60,881	 -0,113	 -46,777	 20,000
-0,006	 -60,843	 -0,113	 -46,743	 20,400
-0,006	 -60,803	 -0,112	 -46,714	 20,800
-0,006	 -60,761	 -0,112	 -46,684	 21,200
-0,006	 -60,726	 -0,112	 -46,651	 21,600
-0,006	 -60,683	 -0,113	 -46,624	 22,000
-0,005	 -60,641	 -0,113	 -46,596	 22,400
-0,006	 -60,604	 -0,113	 -46,563	 22,800
-0,006	 -60,562	 -0,112	 -46,530	 23,200
-0,006	 -60,522	 -0,113	 -46,499	 23,600
-0,006	 -60,483	 -0,112	 -46,465	 24,000
-0,006	 -60,442	 -0,113	 -46,436	 24,400
-0,006	 -60,402	 -0,112	 -46,404	 24,800
-0,006	 -60,363	 -0,112	 -46,374	 25,200
-0,006	 -60,323	 -0,113	 -46,344	 25,600
-0,006	 -60,280	 -0,112	 -46,314	 26,000
-0,006	 -60,242	 -0,113	 -46,283	 26,400
-0,006	 -60,199	 -0,112	 -46,252	 26,800
-0,006	 -60,162	 -0,113	 -46,223	 27,200
-0,006	 -60,121	 -0,112	 -46,189	 27,600
-0,006	 -60,078	 -0,113	 -46,157	 28,000
-0,006	 -60,041	 -0,113	 -46,128	 28,400
-0,006	 -60,006	 -0,113	 -46,098	 28,800
-0,006	 -59,960	 -0,113	 -46,065	 29,200
-0,006	 -59,923	 -0,113	 -46,035	 29,600
-0,006	 -59,880	 -0,113	 -46,004	 30,000
-0,006	 -59,841	 -0,112	 -45,974	 30,400
-0,006	 -59,800	 -0,112	 -45,945	 30,800
-0,006	 -59,761	 -0,113	 -45,911	 31,200
-0,006	 -59,722	 -0,112	 -45,886	 31,600
-0,006	 -59,684	 -0,112	 -45,853	 32,000
-0,006	 -59,640	 -0,113	 -45,820	 32,400
-0,006	 -59,603	 -0,112	 -45,792	 32,800
-0,006	 -59,561	 -0,113	 -45,761	 33,200
-0,006	 -59,522	 -0,112	 -45,732	 33,600
-0,006	 -59,480	 -0,112	 -45,700	 34,000
-0,006	 -59,446	 -0,113	 -45,668	 34,400
-0,006	 -59,400	 -0,112	 -45,639	 34,800
-0,006	 -59,360	 -0,113	 -45,606	 35,200
-0,006	 -59,325	 -0,112	 -45,579	 35,600
-0,006	 -59,282	 -0,113	 -45,548	 36,000
-0,006	 -59,240	 -0,113	 -45,512	 36,400
-0,006	 -59,203	 -0,113	 -45,478	 36,800
-0,006	 -59,163	 -0,113	 -45,448	 37,200
-0,006	 -59,120	 -0,113	 -45,419	 37,600
-0,006	 -59,084	 -0,113	 -45,386	 38,000
-0,006	 -59,040	 -0,113	 -45,360	 38,400
-0,006	 -59,006	 -0,113	 -45,326	 38,800
-0,006	 -58,961	 -0,113	 -45,297	 39,200
-0,006	 -58,923	 -0,112	 -45,266	 39,600
-0,006	 -58,882	 -0,112	 -45,233	 40,000
-0,006	 -58,839	 -0,113	 -45,205	 40,400
-0,006	 -58,801	 -0,113	 -45,177	 40,800
-0,006	 -58,763	 -0,112	 -45,144	 41,200
-0,006	 -58,720	 -0,113	 -45,115	 41,600
-0,006	 -58,682	 -0,113	 -45,084	 42,000
-0,006	 -58,642	 -0,113	 -45,053	 42,400
-0,006	 -58,600	 -0,113	 -45,029	 42,800
-0,006	 -58,563	 -0,113	 -44,991	 43,200
-0,006	 -58,526	 -0,113	 -44,963	 43,600
-0,006	 -58,481	 -0,113	 -44,932	 44,000
-0,006	 -58,443	 -0,113	 -44,902	 44,400
-0,007	 -58,408	 -0,113	 -44,869	 44,800
-0,006	 -58,360	 -0,113	 -44,842	 45,200
-0,006	 -58,322	 -0,112	 -44,806	 45,600
-0,005	 -58,283	 -0,113	 -44,773	 46,000
-0,005	 -58,246	 -0,113	 -44,746	 46,400
-0,004	 -58,203	 -0,113	 -44,717	 46,800
-0,005	 -58,162	 -0,113	 -44,689	 47,200
-0,005	 -58,126	 -0,113	 -44,653	 47,600
-0,005	 -58,082	 -0,113	 -44,624	 48,000
-0,005	 -58,042	 -0,113	 -44,594	 48,400
-0,004	 -58,008	 -0,112	 -44,563	 48,800
-0,004	 -57,961	 -0,113	 -44,527	 49,200
-0,001	 -57,916	 -0,112	 -44,498	 49,600
0,001	 -57,880	 -0,112	 -44,466	 50,000
0,003	 -57,844	 -0,113	 -44,436	 50,400
0,007	 -57,801	 -0,112	 -44,409	 50,800
0,010	 -57,767	 -0,113	 -44,378	 51,200
0,017	 -57,723	 -0,113	 -44,348	 51,600
0,037	 -57,688	 -0,113	 -44,316	 52,000
0,087	 -57,642	 -0,113	 -44,284	 52,400
0,172	 -57,607	 -0,113	 -44,256	 52,800
0,319	 -57,564	 -0,113	 -44,225	 53,200
0,497	 -57,520	 -0,112	 -44,195	 53,600
0,622	 -57,483	 -0,113	 -44,158	 54,000
0,687	 -57,443	 -0,113	 -44,130	 54,400
0,736	 -57,402	 -0,113	 -44,100	 54,800
0,778	 -57,366	 -0,113	 -44,067	 55,200
0,810	 -57,325	 -0,113	 -44,040	 55,600
0,837	 -57,283	 -0,112	 -44,009	 56,000
0,861	 -57,247	 -0,112	 -43,975	 56,400
0,882	 -57,202	 -0,113	 -43,946	 56,800
0,900	 -57,165	 -0,113	 -43,913	 57,200
0,919	 -57,124	 -0,113	 -43,886	 57,600
0,933	 -57,082	 -0,112	 -43,859	 58,000
0,953	 -57,050	 -0,112	 -43,825	 58,400
0,962	 -57,005	 -0,113	 -43,795	 58,800
0,974	 -56,964	 -0,113	 -43,765	 59,200
0,991	 -56,926	 -0,113	 -43,734	 59,600
0,999	 -56,881	 -0,113	 -43,701	 60,000
1,011	 -56,843	 -0,112	 -43,674	 60,400
1,020	 -56,806	 -0,113	 -43,641	 60,800
1,030	 -56,763	 -0,113	 -43,614	 61,200
1,039	 -56,725	 -0,113	 -43,579	 61,600
1,049	 -56,685	 -0,112	 -43,546	 62,000
1,059	 -56,644	 -0,113	 -43,513	 62,400
1,066	 -56,605	 -0,112	 -43,480	 62,800
1,075	 -56,562	 -0,113	 -43,453	 63,200
1,083	 -56,524	 -0,112	 -43,423	 63,600
1,091	 -56,487	 -0,112	 -43,386	 64,000
1,095	 -56,445	 -0,113	 -43,360	 64,400
1,106	 -56,405	 -0,113	 -43,329	 64,800
1,111	 -56,365	 -0,113	 -43,299	 65,200
1,116	 -56,324	 -0,113	 -43,272	 65,600
1,123	 -56,283	 -0,113	 -43,237	 66,000
1,131	 -56,248	 -0,113	 -43,210	 66,400
1,140	 -56,205	 -0,112	 -43,178	 66,800
1,141	 -56,162	 -0,112	 -43,147	 67,200
1,146	 -56,125	 -0,113	 -43,117	 67,600
1,152	 -56,088	 -0,113	 -43,089	 68,000
1,159	 -56,046	 -0,113	 -43,056	 68,400
1,166	 -56,008	 -0,113	 -43,030	 68,800
1,171	 -55,964	 -0,113	 -42,996	 69,200
1,174	 -55,929	 -0,113	 -42,967	 69,600
1,182	 -55,889	 -0,112	 -42,932	 70,000
1,188	 -55,843	 -0,113	 -42,902	 70,400
1,193	 -55,806	 -0,113	 -42,870	 70,800
1,198	 -55,765	 -0,112	 -42,840	 71,200
1,203	 -55,723	 -0,113	 -42,812	 71,600
1,208	 -55,691	 -0,113	 -42,781	 72,000
1,212	 -55,643	 -0,113	 -42,747	 72,400
1,219	 -55,603	 -0,112	 -42,717	 72,800
1,221	 -55,564	 -0,113	 -42,688	 73,200
1,226	 -55,525	 -0,113	 -42,660	 73,600
1,229	 -55,487	 -0,113	 -42,625	 74,000
1,231	 -55,446	 -0,113	 -42,590	 74,400
1,239	 -55,406	 -0,113	 -42,562	 74,800
1,243	 -55,366	 -0,112	 -42,531	 75,200
1,246	 -55,324	 -0,113	 -42,503	 75,600
1,252	 -55,290	 -0,113	 -42,470	 76,000
1,259	 -55,244	 -0,112	 -42,443	 76,400
1,259	 -55,207	 -0,113	 -42,411	 76,800
1,261	 -55,167	 -0,113	 -42,382	 77,200
1,267	 -55,125	 -0,113	 -42,349	 77,600
1,270	 -55,086	 -0,113	 -42,317	 78,000
1,275	 -55,044	 -0,113	 -42,286	 78,400
1,279	 -55,007	 -0,113	 -42,257	 78,800
1,283	 -54,963	 -0,112	 -42,229	 79,200
1,286	 -54,920	 -0,113	 -42,196	 79,600
1,289	 -54,884	 -0,113	 -42,167	 80,000
1,295	 -54,845	 -0,113	 -42,132	 80,400
1,297	 -54,804	 -0,112	 -42,100	 80,800
1,300	 -54,767	 -0,113	 -42,067	 81,200
1,294	 -54,727	 -0,113	 -42,042	 81,600
1,306	 -54,692	 -0,113	 -42,010	 82,000
1,307	 -54,641	 -0,113	 -41,981	 82,400
1,313	 -54,604	 -0,112	 -41,948	 82,800
1,317	 -54,566	 -0,113	 -41,915	 83,200
1,319	 -54,524	 -0,113	 -41,888	 83,600
1,321	 -54,487	 -0,113	 -41,858	 84,000
1,324	 -54,446	 -0,112	 -41,827	 84,400
1,330	 -54,407	 -0,113	 -41,797	 84,800
1,331	 -54,365	 -0,112	 -41,766	 85,200
1,334	 -54,324	 -0,113	 -41,736	 85,600
1,338	 -54,290	 -0,113	 -41,709	 86,000
1,340	 -54,246	 -0,113	 -41,676	 86,400
1,342	 -54,206	 -0,112	 -41,645	 86,800
1,345	 -54,164	 -0,112	 -41,612	 87,200
1,347	 -54,128	 -0,113	 -41,581	 87,600
1,352	 -54,086	 -0,113	 -41,548	 88,000
1,355	 -54,045	 -0,112	 -41,515	 88,400
1,356	 -54,006	 -0,113	 -41,485	 88,800
1,358	 -53,967	 -0,113	 -41,455	 89,200
1,363	 -53,923	 -0,113	 -41,425	 89,600
1,365	 -53,889	 -0,112	 -41,391	 90,000
1,366	 -53,843	 -0,113	 -41,363	 90,400
1,369	 -53,804	 -0,112	 -41,332	 90,800
1,372	 -53,768	 -0,112	 -41,302	 91,200
1,374	 -53,724	 -0,113	 -41,274	 91,600
1,375	 -53,685	 -0,112	 -41,239	 92,000
1,377	 -53,644	 -0,113	 -41,212	 92,400
1,382	 -53,607	 -0,113	 -41,182	 92,800
1,383	 -53,567	 -0,112	 -41,151	 93,200
1,386	 -53,523	 -0,112	 -41,120	 93,600
1,387	 -53,488	 -0,112	 -41,089	 94,000
1,389	 -53,444	 -0,113	 -41,056	 94,400
1,391	 -53,406	 -0,112	 -41,030	 94,800
1,392	 -53,364	 -0,112	 -40,995	 95,200
1,398	 -53,326	 -0,113	 -40,967	 95,600
1,397	 -53,285	 -0,113	 -40,936	 96,000
1,397	 -53,246	 -0,112	 -40,903	 96,400
1,398	 -53,205	 -0,113	 -40,871	 96,800
1,400	 -53,165	 -0,113	 -40,840	 97,200
1,401	 -53,127	 -0,113	 -40,813	 97,600
1,402	 -53,087	 -0,113	 -40,779	 98,000
1,404	 -53,048	 -0,113	 -40,752	 98,400
1,404	 -53,005	 -0,113	 -40,719	 98,800
1,404	 -52,966	 -0,112	 -40,691	 99,200
1,404	 -52,924	 -0,112	 -40,660	 99,600
1,405	 -52,887	 -0,113	 -40,625	 100,000
1,405	 -52,843	 -0,112	 -40,596	 100,400
1,406	 -52,805	 -0,112	 -40,562	 100,800
1,405	 -52,769	 -0,113	 -40,536	 101,200
1,403	 -52,726	 -0,113	 -40,504	 101,600
1,407	 -52,684	 -0,113	 -40,475	 102,000
1,402	 -52,642	 -0,113	 -40,442	 102,400
1,403	 -52,607	 -0,112	 -40,412	 102,800
1,400	 -52,564	 -0,112	 -40,378	 103,200
1,396	 -52,530	 -0,112	 -40,350	 103,600
1,394	 -52,486	 -0,113	 -40,322	 104,000
1,392	 -52,450	 -0,112	 -40,290	 104,400
1,387	 -52,406	 -0,113	 -40,257	 104,800
1,384	 -52,364	 -0,112	 -40,224	 105,200
1,380	 -52,328	 -0,113	 -40,195	 105,600
1,373	 -52,285	 -0,112	 -40,167	 106,000
1,369	 -52,247	 -0,113	 -40,132	 106,400
1,361	 -52,206	 -0,112	 -40,105	 106,800
1,358	 -52,167	 -0,113	 -40,068	 107,200
1,351	 -52,125	 -0,112	 -40,043	 107,600
1,341	 -52,086	 -0,113	 -40,013	 108,000
1,335	 -52,045	 -0,113	 -39,982	 108,400
1,326	 -52,009	 -0,113	 -39,954	 108,800
1,318	 -51,967	 -0,113	 -39,919	 109,200
1,310	 -51,925	 -0,113	 -39,892	 109,600
1,300	 -51,887	 -0,113	 -39,862	 110,000
1,292	 -51,842	 -0,113	 -39,828	 110,400
1,284	 -51,805	 -0,113	 -39,801	 110,800
1,279	 -51,768	 -0,112	 -39,766	 111,200
1,270	 -51,724	 -0,112	 -39,738	 111,600
1,261	 -51,685	 -0,113	 -39,709	 112,000
1,256	 -51,648	 -0,113	 -39,674	 112,400
1,250	 -51,606	 -0,113	 -39,641	 112,800
1,244	 -51,567	 -0,113	 -39,614	 113,200
1,239	 -51,524	 -0,113	 -39,578	 113,600
1,234	 -51,485	 -0,112	 -39,545	 114,000
1,231	 -51,446	 -0,113	 -39,516	 114,400
1,230	 -51,405	 -0,113	 -39,486	 114,800
1,230	 -51,366	 -0,113	 -39,455	 115,200
1,228	 -51,324	 -0,112	 -39,425	 115,600
1,227	 -51,281	 -0,112	 -39,393	 116,000
1,225	 -51,246	 -0,113	 -39,362	 116,400
1,226	 -51,202	 -0,113	 -39,333	 116,800
1,224	 -51,167	 -0,113	 -39,303	 117,200
1,226	 -51,124	 -0,113	 -39,269	 117,600
1,226	 -51,085	 -0,112	 -39,245	 118,000
1,228	 -51,047	 -0,112	 -39,213	 118,400
1,228	 -51,003	 -0,112	 -39,177	 118,800
1,229	 -50,966	 -0,112	 -39,150	 119,200
1,229	 -50,926	 -0,113	 -39,121	 119,600
1,232	 -50,883	 -0,113	 -39,089	 120,000
1,233	 -50,843	 -0,112	 -39,058	 120,400
1,235	 -50,802	 -0,112	 -39,026	 120,800
1,237	 -50,765	 -0,112	 -38,999	 121,200
1,237	 -50,726	 -0,112	 -38,970	 121,600
1,239	 -50,684	 -0,112	 -38,933	 122,000
1,242	 -50,646	 -0,113	 -38,902	 122,400
1,242	 -50,609	 -0,113	 -38,872	 122,800
1,245	 -50,563	 -0,113	 -38,841	 123,200
1,248	 -50,524	 -0,113	 -38,811	 123,600
1,249	 -50,484	 -0,113	 -38,780	 124,000
1,251	 -50,444	 -0,113	 -38,750	 124,400
1,254	 -50,405	 -0,113	 -38,720	 124,800
1,255	 -50,364	 -0,113	 -38,694	 125,200
1,257	 -50,323	 -0,112	 -38,655	 125,600
1,259	 -50,281	 -0,112	 -38,629	 126,000
1,262	 -50,245	 -0,113	 -38,596	 126,400
1,263	 -50,204	 -0,113	 -38,563	 126,800
1,266	 -50,164	 -0,113	 -38,535	 127,200
1,268	 -50,123	 -0,113	 -38,503	 127,600
1,270	 -50,082	 -0,112	 -38,475	 128,000
1,272	 -50,046	 -0,113	 -38,443	 128,400
1,274	 -50,003	 -0,113	 -38,413	 128,800
1,276	 -49,965	 -0,112	 -38,380	 129,200
1,277	 -49,925	 -0,113	 -38,353	 129,600
1,279	 -49,887	 -0,112	 -38,321	 130,000
1,281	 -49,842	 -0,112	 -38,287	 130,400
1,283	 -49,803	 -0,112	 -38,256	 130,800
1,285	 -49,765	 -0,113	 -38,227	 131,200
1,287	 -49,724	 -0,113	 -38,197	 131,600
1,290	 -49,684	 -0,113	 -38,165	 132,000
1,290	 -49,646	 -0,113	 -38,133	 132,400
1,292	 -49,604	 -0,112	 -38,099	 132,800
1,295	 -49,563	 -0,113	 -38,073	 133,200
1,295	 -49,525	 -0,112	 -38,041	 133,600
1,297	 -49,482	 -0,113	 -38,010	 134,000
1,300	 -49,446	 -0,113	 -37,984	 134,400
1,302	 -49,407	 -0,112	 -37,951	 134,800
1,302	 -49,364	 -0,113	 -37,923	 135,200
1,305	 -49,325	 -0,112	 -37,888	 135,600
1,307	 -49,285	 -0,112	 -37,860	 136,000
1,307	 -49,247	 -0,113	 -37,829	 136,400
1,309	 -49,208	 -0,113	 -37,800	 136,800
1,312	 -49,163	 -0,113	 -37,767	 137,200
1,306	 -49,126	 -0,113	 -37,741	 137,600
1,313	 -49,088	 -0,113	 -37,706	 138,000
1,316	 -49,046	 -0,112	 -37,673	 138,400
1,318	 -49,013	 -0,113	 -37,640	 138,800
1,318	 -48,966	 -0,113	 -37,609	 139,200
1,319	 -48,930	 -0,113	 -37,581	 139,600
1,322	 -48,886	 -0,113	 -37,546	 140,000
1,323	 -48,846	 -0,112	 -37,519	 140,400
1,325	 -48,810	 -0,113	 -37,489	 140,800
1,326	 -48,765	 -0,113	 -37,457	 141,200
1,328	 -48,726	 -0,112	 -37,426	 141,600
1,329	 -48,687	 -0,113	 -37,396	 142,000
1,329	 -48,650	 -0,113	 -37,366	 142,400
1,330	 -48,606	 -0,112	 -37,335	 142,800
1,333	 -48,568	 -0,113	 -37,307	 143,200
1,332	 -48,526	 -0,112	 -37,277	 143,600
1,335	 -48,487	 -0,112	 -37,243	 144,000
1,336	 -48,448	 -0,113	 -37,216	 144,400
1,336	 -48,407	 -0,113	 -37,182	 144,800
1,338	 -48,368	 -0,113	 -37,153	 145,200
1,340	 -48,328	 -0,113	 -37,123	 145,600
1,340	 -48,286	 -0,112	 -37,093	 146,000
1,340	 -48,246	 -0,112	 -37,059	 146,400
1,341	 -48,206	 -0,113	 -37,032	 146,800
1,341	 -48,166	 -0,113	 -37,000	 147,200
1,343	 -48,127	 -0,113	 -36,969	 147,600
1,344	 -48,086	 -0,113	 -36,935	 148,000
1,344	 -48,049	 -0,113	 -36,906	 148,400
1,344	 -48,006	 -0,112	 -36,876	 148,800
1,345	 -47,967	 -0,113	 -36,844	 149,200
1,345	 -47,928	 -0,113	 -36,812	 149,600
1,346	 -47,884	 -0,112	 -36,784	 150,000
1,346	 -47,849	 -0,113	 -36,752	 150,400
1,347	 -47,807	 -0,113	 -36,721	 150,800
1,347	 -47,760	 -0,113	 -36,687	 151,200
1,347	 -47,729	 -0,112	 -36,657	 151,600
1,347	 -47,690	 -0,113	 -36,628	 152,000
1,347	 -47,646	 -0,112	 -36,599	 152,400
1,347	 -47,607	 -0,112	 -36,569	 152,800
1,346	 -47,561	 -0,112	 -36,536	 153,200
1,347	 -47,526	 -0,112	 -36,505	 153,600
1,345	 -47,488	 -0,113	 -36,477	 154,000
1,346	 -47,449	 -0,113	 -36,445	 154,400
1,345	 -47,408	 -0,113	 -36,413	 154,800
1,343	 -47,368	 -0,113	 -36,382	 155,200
1,343	 -47,326	 -0,112	 -36,350	 155,600
1,341	 -47,285	 -0,112	 -36,320	 156,000
1,341	 -47,247	 -0,113	 -36,289	 156,400
1,339	 -47,206	 -0,113	 -36,261	 156,800
1,337	 -47,169	 -0,113	 -36,227	 157,200
1,336	 -47,125	 -0,113	 -36,194	 157,600
1,333	 -47,086	 -0,113	 -36,164	 158,000
1,332	 -47,045	 -0,113	 -36,135	 158,400
1,331	 -47,009	 -0,112	 -36,106	 158,800
1,328	 -46,967	 -0,112	 -36,076	 159,200
1,325	 -46,925	 -0,113	 -36,046	 159,600
1,322	 -46,884	 -0,113	 -36,017	 160,000
1,320	 -46,848	 -0,113	 -35,986	 160,400
1,317	 -46,807	 -0,113	 -35,955	 160,800
1,313	 -46,766	 -0,113	 -35,924	 161,200
1,309	 -46,728	 -0,113	 -35,895	 161,600
1,305	 -46,686	 -0,112	 -35,864	 162,000
1,301	 -46,644	 -0,112	 -35,832	 162,400
1,298	 -46,604	 -0,113	 -35,803	 162,800
1,292	 -46,567	 -0,113	 -35,770	 163,200
1,288	 -46,524	 -0,113	 -35,738	 163,600
1,282	 -46,488	 -0,113	 -35,706	 164,000
1,276	 -46,446	 -0,112	 -35,673	 164,400
1,271	 -46,405	 -0,112	 -35,642	 164,800
1,266	 -46,363	 -0,113	 -35,612	 165,200
1,260	 -46,326	 -0,113	 -35,580	 165,600
1,255	 -46,284	 -0,113	 -35,550	 166,000
1,249	 -46,247	 -0,113	 -35,520	 166,400
1,243	 -46,204	 -0,113	 -35,492	 166,800
1,236	 -46,166	 -0,113	 -35,460	 167,200
1,231	 -46,122	 -0,113	 -35,429	 167,600
1,227	 -46,085	 -0,113	 -35,397	 168,000
1,221	 -46,046	 -0,112	 -35,368	 168,400
1,216	 -46,008	 -0,112	 -35,339	 168,800
1,211	 -45,968	 -0,113	 -35,309	 169,200
1,206	 -45,925	 -0,113	 -35,280	 169,600
1,202	 -45,887	 -0,113	 -35,245	 170,000
1,198	 -45,845	 -0,113	 -35,217	 170,400
1,194	 -45,807	 -0,113	 -35,186	 170,800
1,190	 -45,764	 -0,112	 -35,155	 171,200
1,188	 -45,724	 -0,113	 -35,125	 171,600
1,184	 -45,682	 -0,112	 -35,095	 172,000
1,182	 -45,645	 -0,113	 -35,066	 172,400
1,179	 -45,607	 -0,113	 -35,032	 172,800
1,176	 -45,563	 -0,113	 -34,998	 173,200
1,175	 -45,526	 -0,113	 -34,969	 173,600
1,173	 -45,487	 -0,113	 -34,938	 174,000
1,172	 -45,444	 -0,113	 -34,908	 174,400
1,170	 -45,404	 -0,112	 -34,876	 174,800
1,170	 -45,363	 -0,113	 -34,846	 175,200
1,169	 -45,324	 -0,112	 -34,818	 175,600
1,167	 -45,282	 -0,113	 -34,788	 176,000
1,168	 -45,245	 -0,112	 -34,751	 176,400
1,165	 -45,205	 -0,113	 -34,723	 176,800
1,166	 -45,166	 -0,113	 -34,692	 177,200
1,165	 -45,124	 -0,113	 -34,664	 177,600
1,163	 -45,086	 -0,113	 -34,632	 178,000
1,165	 -45,044	 -0,112	 -34,601	 178,400
1,164	 -45,005	 -0,113	 -34,573	 178,800
1,164	 -44,965	 -0,112	 -34,537	 179,200
1,163	 -44,925	 -0,113	 -34,508	 179,600
1,163	 -44,884	 -0,113	 -34,476	 180,000
1,164	 -44,846	 -0,113	 -34,448	 180,400
1,163	 -44,805	 -0,113	 -34,419	 180,800
1,163	 -44,767	 -0,113	 -34,385	 181,200
1,163	 -44,726	 -0,113	 -34,353	 181,600
1,162	 -44,684	 -0,112	 -34,327	 182,000
1,162	 -44,644	 -0,113	 -34,293	 182,400
1,160	 -44,607	 -0,113	 -34,263	 182,800
1,162	 -44,564	 -0,113	 -34,233	 183,200
1,162	 -44,520	 -0,113	 -34,202	 183,600
1,163	 -44,482	 -0,113	 -34,169	 184,000
1,162	 -44,444	 -0,113	 -34,139	 184,400
1,162	 -44,403	 -0,112	 -34,108	 184,800
1,163	 -44,364	 -0,113	 -34,082	 185,200
1,162	 -44,325	 -0,113	 -34,048	 185,600
1,163	 -44,284	 -0,112	 -34,020	 186,000
1,163	 -44,245	 -0,113	 -33,985	 186,400
1,164	 -44,204	 -0,113	 -33,958	 186,800
1,163	 -44,164	 -0,113	 -33,926	 187,200
1,163	 -44,126	 -0,113	 -33,898	 187,600
1,164	 -44,085	 -0,113	 -33,867	 188,000
1,164	 -44,042	 -0,112	 -33,835	 188,400
1,162	 -44,004	 -0,112	 -33,805	 188,800
1,163	 -43,964	 -0,113	 -33,773	 189,200
1,163	 -43,927	 -0,113	 -33,742	 189,600
1,162	 -43,886	 -0,113	 -33,705	 190,000
1,162	 -43,839	 -0,112	 -33,674	 190,400
1,163	 -43,806	 -0,113	 -33,641	 190,800
1,162	 -43,765	 -0,112	 -33,615	 191,200
1,161	 -43,723	 -0,113	 -33,585	 191,600
1,162	 -43,685	 -0,112	 -33,553	 192,000
1,163	 -43,644	 -0,113	 -33,523	 192,400
1,163	 -43,606	 -0,113	 -33,492	 192,800
1,163	 -43,565	 -0,113	 -33,464	 193,200
1,162	 -43,526	 -0,112	 -33,429	 193,600
1,161	 -43,484	 -0,112	 -33,402	 194,000
1,162	 -43,445	 -0,112	 -33,371	 194,400
1,162	 -43,404	 -0,113	 -33,338	 194,800
1,161	 -43,364	 -0,112	 -33,310	 195,200
1,161	 -43,324	 -0,113	 -33,279	 195,600
1,161	 -43,286	 -0,112	 -33,247	 196,000
1,159	 -43,245	 -0,113	 -33,220	 196,400
1,159	 -43,203	 -0,113	 -33,187	 196,800
1,159	 -43,166	 -0,113	 -33,159	 197,200
1,159	 -43,125	 -0,113	 -33,129	 197,600
1,159	 -43,085	 -0,113	 -33,100	 198,000
1,158	 -43,043	 -0,112	 -33,063	 198,400
1,158	 -43,005	 -0,113	 -33,032	 198,800
1,156	 -42,966	 -0,113	 -33,004	 199,200
1,157	 -42,925	 -0,112	 -32,971	 199,600
1,157	 -42,886	 -0,112	 -32,943	 200,000
1,155	 -42,845	 -0,113	 -32,911	 200,400
1,152	 -42,803	 -0,113	 -32,883	 200,800
1,153	 -42,767	 -0,113	 -32,848	 201,200
1,153	 -42,727	 -0,112	 -32,819	 201,600
1,151	 -42,686	 -0,112	 -32,784	 202,000
1,150	 -42,646	 -0,113	 -32,755	 202,400
1,149	 -42,605	 -0,112	 -32,723	 202,800
1,148	 -42,564	 -0,113	 -32,693	 203,200
1,147	 -42,526	 -0,113	 -32,664	 203,600
1,149	 -42,483	 -0,113	 -32,635	 204,000
1,146	 -42,444	 -0,112	 -32,605	 204,400
1,144	 -42,405	 -0,113	 -32,570	 204,800
1,143	 -42,363	 -0,112	 -32,541	 205,200
1,141	 -42,325	 -0,113	 -32,512	 205,600
1,140	 -42,285	 -0,112	 -32,481	 206,000
1,139	 -42,245	 -0,113	 -32,449	 206,400
1,138	 -42,206	 -0,112	 -32,416	 206,800
1,136	 -42,163	 -0,113	 -32,384	 207,200
1,133	 -42,124	 -0,112	 -32,356	 207,600
1,133	 -42,085	 -0,112	 -32,324	 208,000
1,130	 -42,046	 -0,112	 -32,293	 208,400
1,129	 -42,007	 -0,113	 -32,266	 208,800
1,127	 -41,970	 -0,113	 -32,233	 209,200
1,126	 -41,925	 -0,113	 -32,206	 209,600
1,124	 -41,887	 -0,112	 -32,172	 210,000
1,123	 -41,845	 -0,113	 -32,142	 210,400
1,121	 -41,807	 -0,113	 -32,112	 210,800
1,120	 -41,765	 -0,113	 -32,081	 211,200
1,117	 -41,727	 -0,113	 -32,051	 211,600
1,116	 -41,685	 -0,113	 -32,020	 212,000
1,115	 -41,646	 -0,113	 -31,988	 212,400
1,113	 -41,607	 -0,113	 -31,962	 212,800
1,111	 -41,564	 -0,112	 -31,931	 213,200
1,110	 -41,524	 -0,112	 -31,897	 213,600
1,108	 -41,487	 -0,112	 -31,871	 214,000
1,106	 -41,443	 -0,113	 -31,838	 214,400
1,104	 -41,403	 -0,113	 -31,801	 214,800
1,103	 -41,366	 -0,113	 -31,775	 215,200
1,101	 -41,323	 -0,113	 -31,741	 215,600
1,100	 -41,284	 -0,113	 -31,709	 216,000
1,099	 -41,244	 -0,113	 -31,678	 216,400
1,099	 -41,200	 -0,113	 -31,647	 216,800
1,095	 -41,163	 -0,112	 -31,618	 217,200
1,095	 -41,123	 -0,113	 -31,587	 217,600
1,094	 -41,085	 -0,112	 -31,553	 218,000
1,092	 -41,042	 -0,113	 -31,525	 218,400
1,090	 -41,003	 -0,113	 -31,492	 218,800
1,091	 -40,960	 -0,113	 -31,465	 219,200
1,089	 -40,925	 -0,113	 -31,437	 219,600
1,089	 -40,881	 -0,113	 -31,404	 220,000
1,087	 -40,846	 -0,113	 -31,374	 220,400
1,086	 -40,802	 -0,113	 -31,343	 220,800
1,086	 -40,766	 -0,112	 -31,311	 221,200
1,085	 -40,722	 -0,112	 -31,283	 221,600
1,084	 -40,683	 -0,112	 -31,250	 222,000
1,082	 -40,640	 -0,112	 -31,222	 222,400
1,081	 -40,602	 -0,112	 -31,189	 222,800
1,081	 -40,562	 -0,113	 -31,161	 223,200
1,080	 -40,524	 -0,113	 -31,132	 223,600
1,079	 -40,482	 -0,112	 -31,093	 224,000
1,076	 -40,443	 -0,113	 -31,065	 224,400
1,077	 -40,405	 -0,113	 -31,036	 224,800
1,076	 -40,366	 -0,112	 -31,005	 225,200
1,075	 -40,327	 -0,112	 -30,977	 225,600
1,075	 -40,284	 -0,112	 -30,942	 226,000
1,073	 -40,244	 -0,113	 -30,915	 226,400
1,073	 -40,205	 -0,112	 -30,881	 226,800
1,071	 -40,162	 -0,113	 -30,851	 227,200
1,070	 -40,124	 -0,113	 -30,821	 227,600
1,069	 -40,085	 -0,112	 -30,788	 228,000
1,069	 -40,042	 -0,113	 -30,754	 228,400
1,068	 -40,004	 -0,112	 -30,728	 228,800
1,067	 -39,960	 -0,112	 -30,694	 229,200
1,066	 -39,917	 -0,112	 -30,667	 229,600
1,065	 -39,881	 -0,113	 -30,633	 230,000
1,063	 -39,843	 -0,113	 -30,605	 230,400
1,062	 -39,802	 -0,112	 -30,574	 230,800
1,062	 -39,764	 -0,113	 -30,545	 231,200
1,060	 -39,723	 -0,113	 -30,514	 231,600
1,060	 -39,683	 -0,113	 -30,486	 232,000
1,059	 -39,641	 -0,113	 -30,449	 232,400
1,057	 -39,600	 -0,113	 -30,414	 232,800
1,055	 -39,564	 -0,113	 -30,389	 233,200
1,055	 -39,523	 -0,113	 -30,356	 233,600
1,055	 -39,485	 -0,112	 -30,328	 234,000
1,053	 -39,444	 -0,113	 -30,297	 234,400
1,052	 -39,405	 -0,112	 -30,265	 234,800
1,051	 -39,362	 -0,112	 -30,234	 235,200
1,050	 -39,322	 -0,113	 -30,204	 235,600
1,049	 -39,284	 -0,113	 -30,176	 236,000
1,049	 -39,243	 -0,112	 -30,144	 236,400
1,045	 -39,201	 -0,112	 -30,115	 236,800
1,045	 -39,164	 -0,113	 -30,083	 237,200
1,044	 -39,121	 -0,113	 -30,052	 237,600
1,043	 -39,080	 -0,113	 -30,021	 238,000
1,041	 -39,042	 -0,113	 -29,990	 238,400
1,039	 -39,001	 -0,113	 -29,964	 238,800
1,039	 -38,963	 -0,113	 -29,933	 239,200
1,037	 -38,919	 -0,113	 -29,901	 239,600
1,036	 -38,885	 -0,113	 -29,868	 240,000
1,036	 -38,842	 -0,112	 -29,836	 240,400
1,033	 -38,802	 -0,112	 -29,805	 240,800
1,033	 -38,762	 -0,113	 -29,773	 241,200
1,031	 -38,724	 -0,112	 -29,740	 241,600
1,030	 -38,679	 -0,112	 -29,710	 242,000
1,027	 -38,643	 -0,113	 -29,682	 242,400
1,027	 -38,600	 -0,112	 -29,651	 242,800
1,026	 -38,561	 -0,113	 -29,618	 243,200
1,023	 -38,520	 -0,113	 -29,590	 243,600
1,021	 -38,481	 -0,112	 -29,558	 244,000
1,020	 -38,440	 -0,113	 -29,530	 244,400
1,018	 -38,403	 -0,112	 -29,495	 244,800
1,017	 -38,361	 -0,112	 -29,469	 245,200
1,016	 -38,321	 -0,112	 -29,436	 245,600
1,012	 -38,285	 -0,113	 -29,406	 246,000
1,013	 -38,241	 -0,113	 -29,376	 246,400
1,011	 -38,203	 -0,113	 -29,346	 246,800
1,009	 -38,163	 -0,113	 -29,316	 247,200
1,007	 -38,124	 -0,112	 -29,285	 247,600
1,006	 -38,084	 -0,113	 -29,257	 248,000
1,004	 -38,042	 -0,112	 -29,225	 248,400
1,002	 -38,003	 -0,112	 -29,197	 248,800
1,001	 -37,963	 -0,112	 -29,162	 249,200
1,000	 -37,923	 -0,113	 -29,126	 249,600
0,999	 -37,885	 -0,112	 -29,100	 250,000
0,996	 -37,844	 -0,113	 -29,070	 250,400
0,996	 -37,808	 -0,113	 -29,036	 250,800
0,993	 -37,760	 -0,113	 -29,008	 251,200
0,992	 -37,724	 -0,113	 -28,976	 251,600
0,991	 -37,684	 -0,113	 -28,946	 252,000
0,989	 -37,642	 -0,113	 -28,915	 252,400
0,988	 -37,600	 -0,113	 -28,883	 252,800
0,988	 -37,567	 -0,113	 -28,851	 253,200
0,985	 -37,524	 -0,112	 -28,820	 253,600
0,983	 -37,483	 -0,112	 -28,789	 254,000
0,980	 -37,442	 -0,113	 -28,760	 254,400
0,982	 -37,406	 -0,113	 -28,728	 254,800
0,980	 -37,364	 -0,113	 -28,695	 255,200
0,978	 -37,324	 -0,113	 -28,668	 255,600
0,977	 -37,281	 -0,113	 -28,639	 256,000
0,975	 -37,242	 -0,112	 -28,607	 256,400
0,973	 -37,205	 -0,113	 -28,578	 256,800
0,973	 -37,163	 -0,112	 -28,546	 257,200
0,972	 -37,123	 -0,113	 -28,518	 257,600
0,969	 -37,083	 -0,112	 -28,482	 258,000
0,970	 -37,046	 -0,113	 -28,454	 258,400
0,967	 -37,003	 -0,112	 -28,421	 258,800
0,966	 -36,960	 -0,112	 -28,389	 259,200
0,964	 -36,921	 -0,113	 -28,358	 259,600
0,963	 -36,883	 -0,113	 -28,330	 260,000
0,959	 -36,844	 -0,113	 -28,298	 260,400
0,959	 -36,802	 -0,113	 -28,270	 260,800
0,956	 -36,760	 -0,113	 -28,237	 261,200
0,956	 -36,720	 -0,113	 -28,209	 261,600
0,954	 -36,685	 -0,113	 -28,177	 262,000
0,953	 -36,643	 -0,113	 -28,147	 262,400
0,949	 -36,604	 -0,113	 -28,117	 262,800
0,949	 -36,565	 -0,112	 -28,085	 263,200
0,949	 -36,524	 -0,113	 -28,054	 263,600
0,945	 -36,484	 -0,112	 -28,021	 264,000
0,943	 -36,441	 -0,113	 -27,997	 264,400
0,943	 -36,402	 -0,113	 -27,964	 264,800
0,942	 -36,365	 -0,113	 -27,934	 265,200
0,940	 -36,321	 -0,112	 -27,898	 265,600
0,938	 -36,283	 -0,113	 -27,870	 266,000
0,937	 -36,243	 -0,113	 -27,834	 266,400
0,935	 -36,202	 -0,112	 -27,804	 266,800
0,933	 -36,165	 -0,113	 -27,776	 267,200
0,934	 -36,122	 -0,113	 -27,746	 267,600
0,931	 -36,082	 -0,113	 -27,714	 268,000
0,929	 -36,043	 -0,113	 -27,683	 268,400
0,929	 -36,007	 -0,113	 -27,651	 268,800
0,925	 -35,964	 -0,113	 -27,621	 269,200
0,922	 -35,923	 -0,113	 -27,587	 269,600
0,924	 -35,887	 -0,113	 -27,560	 270,000
0,921	 -35,847	 -0,113	 -27,530	 270,400
0,920	 -35,809	 -0,113	 -27,497	 270,800
0,917	 -35,762	 -0,113	 -27,472	 271,200
0,917	 -35,730	 -0,113	 -27,438	 271,600
0,916	 -35,684	 -0,113	 -27,407	 272,000
0,913	 -35,645	 -0,113	 -27,381	 272,400
0,913	 -35,605	 -0,113	 -27,348	 272,800
0,911	 -35,562	 -0,112	 -27,315	 273,200
0,910	 -35,526	 -0,113	 -27,289	 273,600
0,908	 -35,483	 -0,113	 -27,256	 274,000
0,906	 -35,444	 -0,112	 -27,227	 274,400
0,904	 -35,407	 -0,112	 -27,195	 274,800
0,904	 -35,366	 -0,113	 -27,162	 275,200
0,902	 -35,323	 -0,113	 -27,132	 275,600
0,899	 -35,285	 -0,113	 -27,101	 276,000
0,900	 -35,244	 -0,113	 -27,068	 276,400
0,896	 -35,204	 -0,112	 -27,041	 276,800
0,895	 -35,166	 -0,113	 -27,010	 277,200
0,894	 -35,126	 -0,112	 -26,978	 277,600
0,892	 -35,083	 -0,112	 -26,945	 278,000
0,890	 -35,047	 -0,113	 -26,914	 278,400
0,890	 -35,004	 -0,112	 -26,884	 278,800
0,889	 -34,962	 -0,113	 -26,851	 279,200
0,885	 -34,925	 -0,113	 -26,826	 279,600
0,885	 -34,887	 -0,112	 -26,794	 280,000
0,884	 -34,842	 -0,113	 -26,763	 280,400
0,882	 -34,804	 -0,112	 -26,733	 280,800
0,876	 -34,763	 -0,112	 -26,702	 281,200
0,879	 -34,723	 -0,112	 -26,669	 281,600
0,877	 -34,687	 -0,113	 -26,642	 282,000
0,876	 -34,644	 -0,113	 -26,609	 282,400
0,874	 -34,608	 -0,113	 -26,583	 282,800
0,872	 -34,561	 -0,112	 -26,548	 283,200
0,871	 -34,523	 -0,113	 -26,516	 283,600
0,870	 -34,487	 -0,113	 -26,487	 284,000
0,869	 -34,444	 -0,112	 -26,452	 284,400
0,867	 -34,401	 -0,112	 -26,423	 284,800
0,865	 -34,366	 -0,113	 -26,390	 285,200
0,864	 -34,326	 -0,113	 -26,363	 285,600
0,861	 -34,284	 -0,112	 -26,330	 286,000
0,860	 -34,244	 -0,113	 -26,302	 286,400
0,858	 -34,205	 -0,113	 -26,267	 286,800
0,856	 -34,166	 -0,113	 -26,242	 287,200
0,855	 -34,127	 -0,112	 -26,213	 287,600
0,852	 -34,080	 -0,113	 -26,180	 288,000
0,852	 -34,044	 -0,112	 -26,151	 288,400
0,849	 -34,009	 -0,113	 -26,119	 288,800
0,848	 -33,965	 -0,113	 -26,092	 289,200
0,847	 -33,924	 -0,113	 -26,058	 289,600
0,844	 -33,886	 -0,113	 -26,031	 290,000
0,844	 -33,844	 -0,112	 -25,996	 290,400
0,842	 -33,805	 -0,112	 -25,964	 290,800
0,839	 -33,763	 -0,113	 -25,932	 291,200
0,837	 -33,724	 -0,113	 -25,903	 291,600
0,836	 -33,693	 -0,113	 -25,871	 292,000
0,835	 -33,650	 -0,113	 -25,837	 292,400
0,833	 -33,604	 -0,112	 -25,807	 292,800
0,831	 -33,566	 -0,113	 -25,777	 293,200
0,829	 -33,523	 -0,113	 -25,748	 293,600
0,826	 -33,486	 -0,113	 -25,718	 294,000
0,825	 -33,443	 -0,113	 -25,685	 294,400
0,823	 -33,406	 -0,113	 -25,654	 294,800
0,822	 -33,365	 -0,113	 -25,625	 295,200
0,819	 -33,323	 -0,112	 -25,595	 295,600
0,818	 -33,281	 -0,112	 -25,566	 296,000
0,817	 -33,243	 -0,113	 -25,537	 296,400
0,814	 -33,201	 -0,113	 -25,505	 296,800
0,811	 -33,159	 -0,113	 -25,471	 297,200
0,810	 -33,123	 -0,113	 -25,441	 297,600
0,808	 -33,083	 -0,113	 -25,412	 298,000
0,807	 -33,041	 -0,112	 -25,380	 298,400
0,805	 -33,002	 -0,112	 -25,354	 298,800
0,802	 -32,962	 -0,113	 -25,321	 299,200
0,800	 -32,924	 -0,113	 -25,288	 299,600
0,799	 -32,888	 -0,112	 -25,259	 300,000
0,796	 -32,842	 -0,113	 -25,225	 300,400
0,796	 -32,803	 -0,112	 -25,193	 300,800
0,793	 -32,760	 -0,112	 -25,164	 301,200
0,791	 -32,724	 -0,113	 -25,133	 301,600
0,788	 -32,681	 -0,112	 -25,102	 302,000
0,786	 -32,644	 -0,113	 -25,071	 302,400
0,784	 -32,603	 -0,112	 -25,043	 302,800
0,782	 -32,567	 -0,113	 -25,012	 303,200
0,780	 -32,524	 -0,112	 -24,979	 303,600
0,777	 -32,482	 -0,112	 -24,946	 304,000
0,776	 -32,448	 -0,113	 -24,918	 304,400
0,774	 -32,403	 -0,113	 -24,887	 304,800
0,773	 -32,367	 -0,112	 -24,857	 305,200
0,769	 -32,324	 -0,113	 -24,828	 305,600
0,768	 -32,283	 -0,112	 -24,795	 306,000
0,765	 -32,242	 -0,113	 -24,764	 306,400
0,763	 -32,203	 -0,113	 -24,735	 306,800
0,761	 -32,164	 -0,112	 -24,704	 307,200
0,758	 -32,125	 -0,113	 -24,675	 307,600
0,755	 -32,083	 -0,113	 -24,642	 308,000
0,753	 -32,043	 -0,113	 -24,615	 308,400
0,751	 -32,007	 -0,113	 -24,581	 308,800
0,748	 -31,962	 -0,113	 -24,550	 309,200
0,746	 -31,924	 -0,112	 -24,517	 309,600
0,743	 -31,882	 -0,113	 -24,487	 310,000
0,742	 -31,846	 -0,113	 -24,455	 310,400
0,740	 -31,806	 -0,113	 -24,433	 310,800
0,738	 -31,764	 -0,113	 -24,396	 311,200
0,734	 -31,726	 -0,113	 -24,367	 311,600
0,733	 -31,686	 -0,113	 -24,335	 312,000
0,731	 -31,646	 -0,113	 -24,306	 312,400
0,730	 -31,603	 -0,113	 -24,274	 312,800
0,725	 -31,566	 -0,113	 -24,246	 313,200
0,724	 -31,522	 -0,113	 -24,213	 313,600
0,722	 -31,486	 -0,113	 -24,182	 314,000
0,720	 -31,446	 -0,113	 -24,153	 314,400
0,718	 -31,406	 -0,112	 -24,122	 314,800
0,716	 -31,365	 -0,112	 -24,091	 315,200
0,713	 -31,325	 -0,113	 -24,061	 315,600
0,711	 -31,286	 -0,113	 -24,030	 316,000
0,708	 -31,247	 -0,113	 -23,996	 316,400
0,707	 -31,204	 -0,113	 -23,962	 316,800
0,705	 -31,161	 -0,112	 -23,933	 317,200
0,701	 -31,126	 -0,113	 -23,899	 317,600
0,699	 -31,084	 -0,113	 -23,871	 318,000
0,697	 -31,043	 -0,113	 -23,841	 318,400
0,694	 -31,007	 -0,113	 -23,812	 318,800
0,692	 -30,969	 -0,113	 -23,783	 319,200
0,689	 -30,926	 -0,113	 -23,752	 319,600
0,686	 -30,883	 -0,113	 -23,717	 320,000
0,685	 -30,843	 -0,112	 -23,689	 320,400
0,682	 -30,802	 -0,112	 -23,659	 320,800
0,680	 -30,767	 -0,113	 -23,628	 321,200
0,677	 -30,722	 -0,112	 -23,597	 321,600
0,673	 -30,683	 -0,112	 -23,565	 322,000
0,671	 -30,647	 -0,112	 -23,534	 322,400
0,669	 -30,605	 -0,113	 -23,501	 322,800
0,667	 -30,564	 -0,112	 -23,476	 323,200
0,664	 -30,525	 -0,113	 -23,443	 323,600
0,662	 -30,483	 -0,113	 -23,413	 324,000
0,660	 -30,445	 -0,113	 -23,386	 324,400
0,658	 -30,405	 -0,113	 -23,353	 324,800
0,653	 -30,367	 -0,113	 -23,324	 325,200
0,652	 -30,326	 -0,112	 -23,294	 325,600
0,652	 -30,283	 -0,113	 -23,259	 326,000
0,649	 -30,246	 -0,112	 -23,228	 326,400
0,647	 -30,207	 -0,113	 -23,199	 326,800
0,642	 -30,163	 -0,113	 -23,165	 327,200
0,642	 -30,126	 -0,112	 -23,136	 327,600
0,639	 -30,089	 -0,112	 -23,103	 328,000
0,637	 -30,044	 -0,113	 -23,077	 328,400
0,635	 -30,004	 -0,113	 -23,049	 328,800
0,633	 -29,971	 -0,112	 -23,012	 329,200
0,630	 -29,926	 -0,113	 -22,984	 329,600
0,627	 -29,883	 -0,113	 -22,951	 330,000
0,624	 -29,843	 -0,113	 -22,922	 330,400
0,622	 -29,803	 -0,113	 -22,889	 330,800
0,619	 -29,764	 -0,113	 -22,858	 331,200
0,616	 -29,723	 -0,113	 -22,826	 331,600
0,613	 -29,686	 -0,113	 -22,797	 332,000
0,610	 -29,645	 -0,113	 -22,765	 332,400
0,608	 -29,605	 -0,113	 -22,738	 332,800
0,604	 -29,567	 -0,113	 -22,707	 333,200
0,603	 -29,528	 -0,112	 -22,675	 333,600
0,600	 -29,489	 -0,113	 -22,647	 334,000
0,596	 -29,445	 -0,113	 -22,610	 334,400
0,595	 -29,410	 -0,113	 -22,580	 334,800
0,591	 -29,365	 -0,113	 -22,547	 335,200
0,589	 -29,326	 -0,113	 -22,521	 335,600
0,586	 -29,285	 -0,113	 -22,490	 336,000
0,585	 -29,247	 -0,113	 -22,459	 336,400
0,582	 -29,206	 -0,112	 -22,429	 336,800
0,579	 -29,164	 -0,112	 -22,398	 337,200
0,577	 -29,125	 -0,112	 -22,367	 337,600
0,573	 -29,091	 -0,113	 -22,338	 338,000
0,571	 -29,049	 -0,113	 -22,308	 338,400
0,569	 -29,005	 -0,112	 -22,275	 338,800
0,566	 -28,966	 -0,113	 -22,245	 339,200
0,564	 -28,923	 -0,113	 -22,215	 339,600
0,560	 -28,888	 -0,113	 -22,187	 340,000
0,559	 -28,845	 -0,112	 -22,157	 340,400
0,556	 -28,804	 -0,113	 -22,122	 340,800
0,553	 -28,766	 -0,113	 -22,091	 341,200
0,550	 -28,727	 -0,112	 -22,065	 341,600
0,546	 -28,687	 -0,113	 -22,030	 342,000
0,544	 -28,646	 -0,112	 -21,999	 342,400
0,541	 -28,605	 -0,113	 -21,964	 342,800
0,538	 -28,565	 -0,113	 -21,935	 343,200
0,535	 -28,526	 -0,112	 -21,904	 343,600
0,532	 -28,489	 -0,113	 -21,874	 344,000
0,530	 -28,443	 -0,112	 -21,841	 344,400
0,527	 -28,406	 -0,113	 -21,813	 344,800
0,524	 -28,364	 -0,113	 -21,780	 345,200
0,521	 -28,326	 -0,113	 -21,750	 345,600
0,518	 -28,287	 -0,113	 -21,721	 346,000
0,515	 -28,244	 -0,112	 -21,691	 346,400
0,512	 -28,206	 -0,112	 -21,661	 346,800
0,509	 -28,164	 -0,113	 -21,629	 347,200
0,507	 -28,125	 -0,113	 -21,600	 347,600
0,504	 -28,088	 -0,112	 -21,570	 348,000
0,500	 -28,044	 -0,112	 -21,538	 348,400
0,497	 -28,004	 -0,112	 -21,506	 348,800
0,494	 -27,964	 -0,113	 -21,479	 349,200
0,491	 -27,924	 -0,113	 -21,445	 349,600
0,488	 -27,881	 -0,113	 -21,416	 350,000
0,485	 -27,846	 -0,113	 -21,388	 350,400
0,483	 -27,805	 -0,113	 -21,355	 350,800
0,481	 -27,764	 -0,112	 -21,322	 351,200
0,477	 -27,723	 -0,113	 -21,291	 351,600
0,475	 -27,685	 -0,112	 -21,261	 352,000
0,472	 -27,645	 -0,113	 -21,228	 352,400
0,468	 -27,606	 -0,113	 -21,200	 352,800
0,465	 -27,565	 -0,112	 -21,171	 353,200
0,463	 -27,528	 -0,113	 -21,138	 353,600
0,459	 -27,485	 -0,113	 -21,106	 354,000
0,456	 -27,445	 -0,113	 -21,074	 354,400
0,453	 -27,405	 -0,113	 -21,044	 354,800
0,449	 -27,365	 -0,113	 -21,011	 355,200
0,446	 -27,325	 -0,112	 -20,984	 355,600
0,443	 -27,288	 -0,113	 -20,951	 356,000
0,441	 -27,247	 -0,112	 -20,923	 356,400
0,437	 -27,203	 -0,112	 -20,887	 356,800
0,434	 -27,169	 -0,113	 -20,860	 357,200
0,432	 -27,123	 -0,113	 -20,833	 357,600
0,429	 -27,083	 -0,113	 -20,800	 358,000
0,426	 -27,045	 -0,113	 -20,771	 358,400
0,423	 -27,007	 -0,112	 -20,739	 358,800
0,419	 -26,964	 -0,113	 -20,708	 359,200
0,418	 -26,925	 -0,113	 -20,679	 359,600
0,414	 -26,886	 -0,112	 -20,643	 360,000
0,410	 -26,842	 -0,113	 -20,615	 360,400
0,407	 -26,805	 -0,112	 -20,585	 360,800
0,405	 -26,766	 -0,112	 -20,553	 361,200
0,399	 -26,725	 -0,113	 -20,525	 361,600
0,397	 -26,685	 -0,113	 -20,493	 362,000
0,395	 -26,644	 -0,113	 -20,462	 362,400
0,391	 -26,606	 -0,113	 -20,433	 362,800
0,388	 -26,567	 -0,113	 -20,401	 363,200
0,385	 -26,528	 -0,113	 -20,369	 363,600
0,383	 -26,487	 -0,113	 -20,340	 364,000
0,379	 -26,442	 -0,113	 -20,310	 364,400
0,376	 -26,402	 -0,113	 -20,279	 364,800
0,373	 -26,364	 -0,113	 -20,246	 365,200
0,369	 -26,325	 -0,113	 -20,219	 365,600
0,366	 -26,281	 -0,112	 -20,187	 366,000
0,363	 -26,244	 -0,112	 -20,157	 366,400
0,360	 -26,203	 -0,113	 -20,128	 366,800
0,357	 -26,164	 -0,113	 -20,090	 367,200
0,353	 -26,122	 -0,112	 -20,061	 367,600
0,350	 -26,082	 -0,113	 -20,031	 368,000
0,346	 -26,046	 -0,112	 -19,999	 368,400
0,344	 -26,003	 -0,112	 -19,968	 368,800
0,340	 -25,963	 -0,113	 -19,936	 369,200
0,337	 -25,924	 -0,113	 -19,907	 369,600
0,333	 -25,883	 -0,113	 -19,877	 370,000
0,331	 -25,841	 -0,112	 -19,846	 370,400
0,328	 -25,804	 -0,113	 -19,813	 370,800
0,325	 -25,764	 -0,113	 -19,784	 371,200
0,321	 -25,726	 -0,112	 -19,755	 371,600
0,318	 -25,683	 -0,112	 -19,722	 372,000
0,314	 -25,642	 -0,113	 -19,694	 372,400
0,311	 -25,606	 -0,112	 -19,664	 372,800
0,307	 -25,560	 -0,113	 -19,632	 373,200
0,304	 -25,522	 -0,113	 -19,600	 373,600
0,301	 -25,485	 -0,113	 -19,571	 374,000
0,298	 -25,442	 -0,113	 -19,543	 374,400
0,295	 -25,402	 -0,113	 -19,512	 374,800
0,291	 -25,362	 -0,112	 -19,481	 375,200
0,289	 -25,319	 -0,113	 -19,450	 375,600
0,286	 -25,282	 -0,113	 -19,418	 376,000
0,282	 -25,244	 -0,113	 -19,391	 376,400
0,279	 -25,201	 -0,113	 -19,351	 376,800
0,275	 -25,162	 -0,113	 -19,324	 377,200
0,272	 -25,121	 -0,113	 -19,292	 377,600
0,269	 -25,082	 -0,113	 -19,264	 378,000
0,265	 -25,039	 -0,113	 -19,233	 378,400
0,262	 -25,002	 -0,112	 -19,203	 378,800
0,259	 -24,961	 -0,113	 -19,171	 379,200
0,255	 -24,921	 -0,112	 -19,142	 379,600
0,252	 -24,883	 -0,112	 -19,107	 380,000
0,249	 -24,841	 -0,113	 -19,076	 380,400
0,246	 -24,799	 -0,112	 -19,045	 380,800
0,241	 -24,763	 -0,113	 -19,015	 381,200
0,238	 -24,723	 -0,113	 -18,984	 381,600
0,235	 -24,682	 -0,113	 -18,955	 382,000
0,231	 -24,641	 -0,112	 -18,924	 382,400
0,228	 -24,604	 -0,112	 -18,894	 382,800
0,225	 -24,563	 -0,112	 -18,863	 383,200
0,222	 -24,524	 -0,112	 -18,830	 383,600
0,219	 -24,480	 -0,113	 -18,802	 384,000
0,215	 -24,440	 -0,113	 -18,771	 384,400
0,212	 -24,405	 -0,113	 -18,745	 384,800
0,208	 -24,362	 -0,113	 -18,708	 385,200
0,205	 -24,321	 -0,112	 -18,676	 385,600
0,202	 -24,277	 -0,113	 -18,646	 386,000
0,199	 -24,242	 -0,112	 -18,616	 386,400
0,195	 -24,203	 -0,113	 -18,582	 386,800
0,193	 -24,162	 -0,112	 -18,557	 387,200
0,189	 -24,121	 -0,113	 -18,525	 387,600
0,186	 -24,080	 -0,113	 -18,495	 388,000
0,183	 -24,044	 -0,112	 -18,466	 388,400
0,180	 -24,001	 -0,113	 -18,434	 388,800
0,177	 -23,961	 -0,112	 -18,401	 389,200
0,173	 -23,921	 -0,112	 -18,372	 389,600
0,170	 -23,883	 -0,113	 -18,342	 390,000
0,166	 -23,840	 -0,113	 -18,314	 390,400
0,163	 -23,800	 -0,113	 -18,280	 390,800
0,160	 -23,762	 -0,112	 -18,252	 391,200
0,157	 -23,718	 -0,112	 -18,222	 391,600
0,154	 -23,680	 -0,113	 -18,189	 392,000
0,151	 -23,640	 -0,112	 -18,162	 392,400
0,148	 -23,596	 -0,113	 -18,125	 392,800
0,145	 -23,561	 -0,113	 -18,094	 393,200
0,141	 -23,523	 -0,113	 -18,066	 393,600
0,138	 -23,483	 -0,112	 -18,029	 394,000
0,135	 -23,439	 -0,113	 -18,001	 394,400
0,132	 -23,401	 -0,112	 -17,971	 394,800
0,129	 -23,358	 -0,112	 -17,937	 395,200
0,126	 -23,318	 -0,112	 -17,910	 395,600
0,123	 -23,281	 -0,113	 -17,878	 396,000
0,120	 -23,239	 -0,113	 -17,849	 396,400
0,117	 -23,201	 -0,113	 -17,819	 396,800
0,114	 -23,163	 -0,113	 -17,788	 397,200
0,111	 -23,119	 -0,113	 -17,757	 397,600
0,108	 -23,080	 -0,113	 -17,726	 398,000
0,105	 -23,040	 -0,113	 -17,697	 398,400
0,103	 -23,000	 -0,113	 -17,666	 398,800
0,100	 -22,959	 -0,112	 -17,637	 399,200
0,097	 -22,920	 -0,113	 -17,603	 399,600
0,094	 -22,879	 -0,112	 -17,573	 400,000
0,091	 -22,839	 -0,112	 -17,544	 400,400
0,089	 -22,799	 -0,113	 -17,511	 400,800
0,086	 -22,759	 -0,112	 -17,481	 401,200
0,083	 -22,721	 -0,113	 -17,453	 401,600
0,081	 -22,677	 -0,112	 -17,421	 402,000
0,078	 -22,637	 -0,113	 -17,388	 402,400
0,075	 -22,601	 -0,112	 -17,357	 402,800
0,073	 -22,558	 -0,113	 -17,327	 403,200
0,070	 -22,521	 -0,113	 -17,297	 403,600
0,068	 -22,478	 -0,113	 -17,267	 404,000
0,065	 -22,437	 -0,112	 -17,235	 404,400
0,063	 -22,400	 -0,113	 -17,208	 404,800
0,060	 -22,358	 -0,113	 -17,173	 405,200
0,058	 -22,320	 -0,112	 -17,139	 405,600
0,056	 -22,279	 -0,113	 -17,110	 406,000
0,053	 -22,242	 -0,113	 -17,081	 406,400
0,051	 -22,199	 -0,113	 -17,049	 406,800
0,049	 -22,157	 -0,113	 -17,018	 407,200
0,046	 -22,120	 -0,113	 -16,990	 407,600
0,044	 -22,077	 -0,112	 -16,956	 408,000
0,042	 -22,039	 -0,113	 -16,927	 408,400
0,040	 -22,001	 -0,113	 -16,897	 408,800
0,038	 -21,958	 -0,113	 -16,863	 409,200
0,036	 -21,921	 -0,113	 -16,835	 409,600
0,035	 -21,878	 -0,112	 -16,805	 410,000
0,032	 -21,841	 -0,113	 -16,775	 410,400
0,030	 -21,800	 -0,112	 -16,742	 410,800
0,029	 -21,759	 -0,113	 -16,709	 411,200
0,027	 -21,721	 -0,112	 -16,678	 411,600
0,026	 -21,678	 -0,113	 -16,648	 412,000
0,024	 -21,640	 -0,113	 -16,618	 412,400
0,022	 -21,597	 -0,112	 -16,588	 412,800
0,021	 -21,558	 -0,112	 -16,556	 413,200
0,019	 -21,520	 -0,113	 -16,528	 413,600
0,018	 -21,478	 -0,113	 -16,497	 414,000
0,017	 -21,437	 -0,113	 -16,464	 414,400
0,015	 -21,399	 -0,112	 -16,438	 414,800
0,014	 -21,359	 -0,112	 -16,407	 415,200
0,013	 -21,318	 -0,113	 -16,376	 415,600
0,012	 -21,279	 -0,112	 -16,346	 416,000
0,011	 -21,238	 -0,112	 -16,316	 416,400
0,010	 -21,198	 -0,113	 -16,285	 416,800
0,009	 -21,156	 -0,112	 -16,254	 417,200
0,008	 -21,118	 -0,112	 -16,223	 417,600
0,007	 -21,077	 -0,113	 -16,190	 418,000
0,007	 -21,042	 -0,112	 -16,160	 418,400
0,007	 -20,999	 -0,113	 -16,129	 418,800
0,007	 -20,959	 -0,113	 -16,093	 419,200
0,007	 -20,920	 -0,113	 -16,065	 419,600
0,007	 -20,877	 -0,113	 -16,029	 420,000
0,007	 -20,840	 -0,113	 -16,000	 420,400
0,007	 -20,798	 -0,113	 -15,973	 420,800
0,007	 -20,762	 -0,112	 -15,940	 421,200
0,007	 -20,719	 -0,113	 -15,912	 421,600
0,006	 -20,679	 -0,113	 -15,881	 422,000
0,006	 -20,639	 -0,112	 -15,851	 422,400
0,006	 -20,602	 -0,113	 -15,822	 422,800
0,007	 -20,557	 -0,112	 -15,789	 423,200
0,007	 -20,518	 -0,113	 -15,760	 423,600
0,007	 -20,481	 -0,112	 -15,728	 424,000
0,007	 -20,443	 -0,112	 -15,698	 424,400
0,007	 -20,399	 -0,112	 -15,667	 424,800
0,007	 -20,359	 -0,113	 -15,637	 425,200
0,006	 -20,322	 -0,113	 -15,606	 425,600
0,006	 -20,280	 -0,112	 -15,574	 426,000
0,007	 -20,242	 -0,113	 -15,548	 426,400
0,007	 -20,197	 -0,112	 -15,514	 426,800
0,006	 -20,160	 -0,113	 -15,484	 427,200
0,007	 -20,121	 -0,113	 -15,452	 427,600
0,007	 -20,080	 -0,112	 -15,419	 428,000
0,006	 -20,041	 -0,112	 -15,388	 428,400
0,007	 -20,000	 -0,113	 -15,359	 428,800
0,007	 -19,960	 -0,113	 -15,328	 429,200
0,007	 -19,915	 -0,113	 -15,299	 429,600
0,007	 -19,879	 -0,112	 -15,265	 430,000
0,007	 -19,839	 -0,112	 -15,235	 430,400
0,007	 -19,798	 -0,112	 -15,204	 430,800
0,007	 -19,763	 -0,113	 -15,168	 431,200
0,007	 -19,719	 -0,112	 -15,140	 431,600
0,007	 -19,679	 -0,113	 -15,111	 432,000
0,007	 -19,640	 -0,112	 -15,081	 432,400
0,007	 -19,603	 -0,113	 -15,051	 432,800
0,007	 -19,560	 -0,113	 -15,020	 433,200
0,007	 -19,519	 -0,113	 -14,986	 433,600
0,007	 -19,480	 -0,113	 -14,958	 434,000
0,007	 -19,443	 -0,113	 -14,929	 434,400
0,007	 -19,400	 -0,113	 -14,898	 434,800
0,007	 -19,363	 -0,113	 -14,866	 435,200
0,007	 -19,321	 -0,112	 -14,838	 435,600
0,007	 -19,283	 -0,113	 -14,808	 436,000
0,007	 -19,241	 -0,112	 -14,772	 436,400
0,007	 -19,200	 -0,112	 -14,742	 436,800
0,007	 -19,160	 -0,112	 -14,710	 437,200
0,007	 -19,120	 -0,112	 -14,681	 437,600
0,007	 -19,082	 -0,113	 -14,651	 438,000
0,007	 -19,042	 -0,113	 -14,619	 438,400
0,007	 -18,998	 -0,113	 -14,590	 438,800
0,007	 -18,961	 -0,113	 -14,558	 439,200
0,007	 -18,923	 -0,113	 -14,531	 439,600
0,007	 -18,883	 -0,112	 -14,499	 440,000
0,007	 -18,843	 -0,113	 -14,466	 440,400
0,007	 -18,799	 -0,113	 -14,439	 440,800
0,007	 -18,764	 -0,113	 -14,406	 441,200
0,007	 -18,723	 -0,113	 -14,376	 441,600
0,007	 -18,681	 -0,113	 -14,346	 442,000
0,007	 -18,645	 -0,112	 -14,314	 442,400
0,007	 -18,602	 -0,113	 -14,286	 442,800
0,007	 -18,560	 -0,113	 -14,255	 443,200
0,007	 -18,553	 -0,113	 -14,248	 443,300